condition2,trialNo,target,condition1,mRating_irrational,mRating_improbable,mRating_immoral,mRating_abnormal,mRating_goodness,poss_resp_sp,poss_RT_sp,poss_resp_rf,poss_RT_rf,could_resp_sp,could_RT_sp,could_resp_rf,could_RT_rf,may_resp_sp,may_RT_sp,may_resp_rf,may_RT_rf,might_resp_sp,might_RT_sp,might_resp_rf,might_RT_rf,ought_resp_sp,ought_RT_sp,ought_resp_rf,ought_RT_rf,should_resp_sp,should_RT_sp,should_resp_rf,should_RT_rf
1,1,sells some of his stocks or bonds,possible,4.25,2.217391304347826,4.777777777777778,,,0.8490566037735849,1094.7971698113208,0.9411764705882353,2216.6666666666665,0.8359375,1107.1171875,0.9863013698630136,2372.123287671233,0.7530864197530864,1134.2716049382716,0.918918918918919,2364.7567567567567,0.7804878048780488,1057.878048780488,0.8846153846153846,2119.3076923076924,0.7121212121212122,1092.5378787878788,0.864406779661017,2259.728813559322,0.7751937984496124,1120.0,0.9193548387096774,2128.4193548387098
1,2,use a generic medication instead,possible,4.3,2.391304347826087,4.777777777777778,,,0.8878504672897196,1095.5841121495328,0.8938053097345132,2490.407079646018,0.8828125,1083.078125,0.8695652173913043,2333.8115942028985,0.7926829268292683,1056.9024390243903,1.0,2379.3333333333335,0.8941176470588236,1033.2117647058824,0.8181818181818182,2318.5454545454545,0.781021897810219,1086.4379562043796,0.859375,2204.796875,0.7716535433070866,1121.8267716535433,0.8727272727272727,2584.2
1,3,buy a different insurance plan,possible,3.65,2.739130434782609,4.555555555555555,,,0.9090909090909091,1036.4818181818182,0.8181818181818182,2257.686868686869,0.8666666666666667,1052.8814814814814,0.8923076923076924,2479.6153846153848,0.8048780487804879,1034.6707317073171,0.775,2918.575,0.8902439024390244,1048.280487804878,0.7777777777777778,2297.688888888889,0.8449612403100775,1061.8062015503876,0.746031746031746,2381.809523809524,0.8449612403100775,1045.2558139534883,0.7142857142857143,2381.3809523809523
1,4,enroll in federal healthcare,possible,4.3,2.5217391304347827,4.611111111111111,,,0.8981481481481481,1089.5694444444443,0.865979381443299,2314.082474226804,0.8880597014925373,1066.858208955224,0.927536231884058,2595.5797101449275,0.7529411764705882,1054.1882352941177,0.918918918918919,2372.945945945946,0.8705882352941177,1061.7764705882353,0.8571428571428571,2274.8333333333335,0.8571428571428571,1080.5714285714287,0.8545454545454545,2295.3636363636365,0.7751937984496124,1078.6899224806202,0.873015873015873,2349.5396825396824
1,5,borrow the money from a bank,possible,4.5,2.260869565217391,4.611111111111111,,,0.9596412556053812,940.322869955157,0.873015873015873,2220.031746031746,0.9333333333333333,1111.1037037037038,0.95,2118.925,0.9195402298850575,1018.2528735632184,1.0,2551.3333333333335,0.9529411764705882,928.9294117647058,0.84,2148.28,0.8714285714285714,1009.75,0.717948717948718,2452.974358974359,0.937984496124031,992.6356589147287,0.85,2413.375
1,6,be given the money by a friend,possible,4.315789473684211,2.347826086956522,4.666666666666667,,,0.9414634146341463,1034.3853658536586,0.9634146341463414,2169.378048780488,0.8947368421052632,1052.4586466165413,0.9841269841269841,2090.126984126984,0.9069767441860465,1059.5697674418604,1.0,2387.9666666666667,0.9186046511627907,1027.5232558139535,0.9,2375.25,0.8074074074074075,1089.4222222222222,0.8461538461538461,2495.2153846153847,0.859375,1088.078125,0.9,2489.2
1,7,loan the money from his family,possible,4.15,1.826086956521739,4.555555555555555,,,0.9408866995073891,1085.6206896551723,0.8767123287671232,2660.027397260274,0.9098360655737705,1081.4754098360656,0.8736842105263158,2909.9684210526316,0.8421052631578947,1100.0394736842106,0.8727272727272727,2906.0545454545454,0.8780487804878049,1141.2317073170732,0.8620689655172413,2964.689655172414,0.8015873015873016,1121.5,0.7954545454545454,2606.465909090909,0.8305084745762712,1122.8305084745762,0.875,2741.9895833333335
1,8,sell an extra car for the money,possible,3.55,2.4545454545454546,4.777777777777778,,,0.8883720930232558,1069.4976744186047,0.9316239316239316,2348.837606837607,0.8923076923076924,1169.0076923076922,0.9473684210526315,2395.2236842105262,0.7283950617283951,1051.9012345679012,0.8571428571428571,2577.214285714286,0.8395061728395061,1040.9753086419753,0.8604651162790697,2262.4883720930234,0.6666666666666666,1097.2826086956522,0.8591549295774648,2360.830985915493,0.8,1068.824,0.9230769230769231,2182.7846153846153
1,9,be given the money by a turtle,impossible,1.1111111111111107,4.9,4.75,,,0.12264150943396226,1077.4103773584907,0.05263157894736842,2205.463157894737,0.096,1074.608,0.030303030303030304,2184.939393939394,0.16279069767441862,1073.953488372093,0.030303030303030304,2444.151515151515,0.15584415584415584,1083.1948051948052,0.06521739130434782,2167.521739130435,0.10526315789473684,1091.7368421052631,0.10204081632653061,2244.204081632653,0.12,1088.848,0.0,2902.0
1,10,make the money time traveling,impossible,1.0555555555555554,4.9,4.6,,,0.25,1094.2740384615386,0.0390625,2145.6875,0.2713178294573643,1134.8992248062016,0.028169014084507043,2199.225352112676,0.18072289156626506,1099.0963855421687,0.023809523809523808,2511.9761904761904,0.14285714285714285,1095.6493506493507,0.07142857142857142,2292.5476190476193,0.2608695652173913,1126.1014492753623,0.13793103448275862,2503.637931034483,0.1935483870967742,1103.717741935484,0.017543859649122806,2031.859649122807
1,11,grow the money on a tree,impossible,1.1578947368421053,4.894736842105263,4.4,,,0.07657657657657657,969.472972972973,0.10256410256410256,2041.5128205128206,0.07971014492753623,971.4565217391304,0.034482758620689655,2303.4137931034484,0.10588235294117647,939.2588235294118,0.0,2177.0,0.09411764705882353,943.9764705882353,0.0,2338.625,0.1079136690647482,968.6474820143885,0.125,2296.0625,0.07936507936507936,941.9047619047619,0.045454545454545456,2218.4545454545455
1,12,get the money by clapping,impossible,1.1500000000000004,4.9,4.363636363636363,,,0.11059907834101383,1070.6866359447004,0.09090909090909091,2161.443181818182,0.12878787878787878,1060.1742424242425,0.05660377358490566,2002.622641509434,0.12195121951219512,1043.7073170731708,0.0,2055.5,0.07058823529411765,1061.3764705882354,0.0,2182.176470588235,0.11851851851851852,1062.088888888889,0.17777777777777778,2132.688888888889,0.06201550387596899,1039.8372093023256,0.0,1952.5263157894738
1,13,steal the money from his work,immoral,2.0,4.478260869565218,1.2777777777777777,,,0.7727272727272727,1050.621212121212,0.72,2207.88,0.6097560975609756,1030.5121951219512,0.5454545454545454,2067.5,0.631578947368421,1064.0526315789473,0.3333333333333333,4408.0,0.5416666666666666,979.25,0.4166666666666667,2257.3333333333335,0.23529411764705882,976.843137254902,0.1,2017.5,0.10526315789473684,998.2894736842105,0.0,1854.0
1,14,blackmail someone for the money,immoral,1.7000000000000002,4.521739130434782,1.3888888888888893,,,0.5652173913043478,1029.3188405797102,0.76,2141.12,0.47619047619047616,1004.952380952381,0.64,2009.52,0.47058823529411764,1130.764705882353,0.42857142857142855,2303.285714285714,0.4166666666666667,1044.5833333333333,0.375,3108.0,0.16981132075471697,972.7547169811321,0.0,3195.0,0.1111111111111111,990.8333333333334,0.0,1908.1
1,15,commit credit card fraud,immoral,2.05,4.3478260869565215,1.2222222222222223,,,0.6212121212121212,1040.0,0.7714285714285715,2347.3142857142857,0.625,1000.575,0.5769230769230769,2460.653846153846,0.5555555555555556,1038.611111111111,0.4166666666666667,2125.0833333333335,0.4583333333333333,1053.9166666666667,0.46153846153846156,2639.4615384615386,0.19607843137254902,944.6078431372549,0.3333333333333333,1925.5,0.10810810810810811,969.7567567567568,0.09090909090909091,1944.909090909091
1,16,get the medicine by stealing,immoral,2.35,4.130434782608695,1.3888888888888893,,,0.696969696969697,1096.2727272727273,0.8378378378378378,2209.054054054054,0.6585365853658537,1092.1951219512196,0.52,2121.88,0.6111111111111112,1129.2222222222222,0.5,2213.5833333333335,0.5,1030.590909090909,0.3333333333333333,2188.733333333333,0.3137254901960784,1059.8823529411766,0.25,2262.85,0.22857142857142856,1108.6571428571428,0.16666666666666666,1857.6666666666667
1,17,be  given the medicine by  a doctor,improbable,3.45,3.652173913043478,4.777777777777778,,,0.9090909090909091,1056.3636363636363,0.7435897435897436,2478.4615384615386,0.8653846153846154,1108.076923076923,0.9166666666666666,2775.0833333333335,0.9310344827586207,1085.4137931034484,0.8,2067.9333333333334,0.7741935483870968,1095.6774193548388,0.8181818181818182,2482.409090909091,0.8333333333333334,1113.2142857142858,0.7142857142857143,2368.1428571428573,0.7555555555555555,1048.7333333333333,0.75,2457.9
1,18,inherit money from a close relative,improbable,3.473684210526316,3.869565217391304,4.823529411764706,,,0.8860759493670886,1064.0759493670887,0.8275862068965517,2124.103448275862,0.7547169811320755,1095.2641509433963,0.9375,2131.5625,0.8333333333333334,1092.7,0.7333333333333333,2298.0,0.6875,1069.625,0.5294117647058824,2298.0,0.5434782608695652,1082.3260869565217,0.5263157894736842,2745.5263157894738,0.6590909090909091,1077.9545454545455,0.65,2743.75
1,19,receive the money from a stranger,improbable,2.8947368421052633,4.130434782608695,4.611111111111111,,,0.8148148148148148,1084.888888888889,0.6904761904761905,2412.690476190476,0.8,1084.74,0.7692307692307693,2049.4615384615386,0.48484848484848486,1117.878787878788,0.4166666666666667,2236.1666666666665,0.59375,1043.15625,0.375,2189.375,0.4318181818181818,1122.340909090909,0.47368421052631576,2391.684210526316,0.4782608695652174,1122.3260869565217,0.45,3904.05
1,20,discover a cheap new medicine,improbable,2.75,4.043478260869565,4.555555555555555,,,0.6578947368421053,1126.8815789473683,0.6756756756756757,2401.7837837837837,0.6739130434782609,1126.0869565217392,0.625,2876.28125,0.625,1182.5625,0.5384615384615384,2348.3846153846152,0.6333333333333333,1044.6,0.5333333333333333,2975.9333333333334,0.5531914893617021,1129.9148936170213,0.3333333333333333,2641.185185185185,0.5681818181818182,1159.090909090909,0.5294117647058824,2696.0
1,21,sell his own medication,irrational,2.1,4.260869565217392,3.611111111111111,,,0.8108108108108109,1041.7432432432433,0.5238095238095238,2364.309523809524,0.7142857142857143,1073.7380952380952,0.375,3354.625,0.4117647058823529,1092.9705882352941,0.35714285714285715,2085.1428571428573,0.6785714285714286,1093.8214285714287,0.36363636363636365,2222.090909090909,0.15555555555555556,1167.6444444444444,0.14285714285714285,1930.4285714285713,0.2727272727272727,1047.0227272727273,0.11538461538461539,2157.4615384615386
1,22,sell all his clothes for money,irrational,2.15,3.6956521739130435,4.611111111111111,,,0.8611111111111112,1049.3194444444443,0.7666666666666667,2371.633333333333,0.925,1088.3,0.6190476190476191,2538.0476190476193,0.5,1047.735294117647,0.6923076923076923,2607.6923076923076,0.7586206896551724,1054.6896551724137,0.5833333333333334,2038.0,0.5,1088.4545454545455,0.4117647058823529,2606.294117647059,0.4782608695652174,1083.9347826086957,0.24242424242424243,2355.7272727272725
1,23,go on strike until wages increase,irrational,1.8499999999999996,4.434782608695652,3.3529411764705883,,,0.4918032786885246,1346.967213114754,0.5263157894736842,2877.964912280702,0.42105263157894735,1233.4473684210527,0.6206896551724138,2724.0,0.3103448275862069,1101.344827586207,0.4,2510.7,0.25,1168.4285714285713,0.07142857142857142,2067.3571428571427,0.125,1154.85,0.3,3165.1,0.18604651162790697,1116.9302325581396,0.10714285714285714,2275.5
1,24,try random other medicines,irrational,1.5499999999999998,3.9130434782608696,2.8333333333333335,,,0.6818181818181818,1175.0757575757575,0.6071428571428571,2180.9821428571427,0.6388888888888888,1198.9444444444443,0.36666666666666664,2656.2,0.48484848484848486,1113.5757575757575,0.6,2278.15,0.6666666666666666,1127.6333333333334,0.2777777777777778,1914.0555555555557,0.20512820512820512,1132.2820512820513,0.3333333333333333,2280.809523809524,0.42857142857142855,1496.2448979591836,0.13793103448275862,2286.9655172413795
2,25,reschedule for a later flight,possible,,2.5652173913043477,4.605263157894737,,,0.9112149532710281,1030.4766355140187,0.8969072164948454,2268.0515463917527,0.9147286821705426,1041.0,0.9411764705882353,2272.7450980392155,0.9080459770114943,1019.0689655172414,0.9615384615384616,2351.5,0.9529411764705882,1000.035294117647,0.9210526315789473,2747.5526315789475,0.8467153284671532,1051.029197080292,0.8518518518518519,2317.9074074074074,0.8217054263565892,1025.84496124031,0.8571428571428571,2297.0535714285716
2,26,ask the gas station clerk for help,possible,3.75,2.8260869565217392,4.666666666666667,,,0.8697916666666666,1154.9166666666667,0.8851351351351351,2407.391891891892,0.8211382113821138,1146.9430894308944,0.9263157894736842,3325.136842105263,0.7564102564102564,1158.0897435897436,0.7959183673469388,2355.2244897959185,0.7848101265822784,1148.7088607594937,0.7540983606557377,2618.590163934426,0.6793893129770993,1153.1374045801526,0.7564102564102564,2476.2820512820513,0.7317073170731707,1140.6422764227643,0.686046511627907,2420.2906976744184
2,27,take the public bus there,possible,4.75,2.130434782608696,4.888888888888889,,,0.9406392694063926,990.082191780822,0.8953488372093024,2426.906976744186,0.9111111111111111,998.7111111111111,0.8793103448275862,2558.5,0.9529411764705882,977.1647058823529,0.8888888888888888,2477.4814814814813,0.9397590361445783,948.1325301204819,0.8064516129032258,2507.9032258064517,0.9485294117647058,991.0220588235294,0.9148936170212766,2300.127659574468,0.9407407407407408,983.2074074074075,0.8571428571428571,2462.6190476190477
2,28,request aiport shuttle pickup,possible,3.75,2.4347826086956523,4.705882352941177,,,0.9004739336492891,1080.0379146919431,0.8839285714285714,2580.6071428571427,0.9069767441860465,1080.5271317829458,0.8311688311688312,2593.5454545454545,0.8902439024390244,1077.219512195122,0.8461538461538461,2522.6923076923076,0.8795180722891566,1050.132530120482,0.8444444444444444,2949.9777777777776,0.8161764705882353,1103.6470588235295,0.7627118644067796,2474.0677966101694,0.8503937007874016,1052.0551181102362,0.8529411764705882,2421.073529411765
2,29,ask a relative to pick him up,possible,4.65,1.6521739130434783,4.777777777777778,,,0.9636363636363636,976.7227272727273,0.84,2318.06,0.948905109489051,975.3430656934306,0.8529411764705882,2456.176470588235,0.8837209302325582,971.7325581395348,0.9166666666666666,2350.375,0.9294117647058824,963.5058823529412,0.92,2389.2,0.9361702127659575,993.5744680851063,0.85,2946.6,0.9615384615384616,968.3538461538461,0.8888888888888888,2157.1111111111113
2,30,hail a taxi at the intersection,possible,4.35,2.0869565217391304,4.666666666666667,,,0.926605504587156,1021.5366972477065,0.8514851485148515,2537.5346534653463,0.9264705882352942,1047.8014705882354,0.8771929824561403,2411.1052631578946,0.8888888888888888,1015.0987654320987,0.8181818181818182,2674.4545454545455,0.9411764705882353,1005.2,0.7647058823529411,2917.4117647058824,0.896551724137931,1056.3241379310346,0.7924528301886793,2339.0,0.8976377952755905,989.7165354330708,0.8444444444444444,2645.688888888889
2,31,call a friend for a ride,possible,4.4,1.608695652173913,4.722222222222222,,,0.9508928571428571,891.4285714285714,0.9705882352941176,2324.1470588235293,0.9416058394160584,912.7226277372263,1.0,2447.1,0.9545454545454546,899.8977272727273,0.9166666666666666,2321.0,0.9534883720930233,886.7790697674419,1.0,2575.3571428571427,0.9310344827586207,923.0,0.84,2179.64,0.9541984732824428,891.6793893129772,0.8260869565217391,2401.3478260869565
2,32,take public transportation,possible,4.6,1.9565217391304348,4.888888888888889,,,0.9380530973451328,899.6858407079646,0.8085106382978723,2378.276595744681,0.935251798561151,918.0,0.875,2703.78125,0.9418604651162791,879.5,0.8125,7245.1875,0.9135802469135802,846.1851851851852,0.9375,3697.625,0.9455782312925171,932.9863945578231,0.7419354838709677,2219.0,0.9461538461538461,908.4153846153846,0.8181818181818182,2652.0
2,33,get a new car by thinking,impossible,1.1052631578947372,4.954545454545454,4.25,,,0.2731707317073171,1071.9170731707318,0.06521739130434782,2217.1521739130435,0.224,1119.64,0.05084745762711865,2305.5423728813557,0.2222222222222222,1068.1851851851852,0.043478260869565216,2117.217391304348,0.16049382716049382,1043.5432098765432,0.05555555555555555,2340.027777777778,0.20149253731343283,1055.6791044776119,0.10416666666666667,2051.7291666666665,0.13934426229508196,1074.467213114754,0.0,2680.64
2,34,ride a cat to the airport,impossible,1.0499999999999998,4.7727272727272725,4.0,,,0.2922374429223744,1091.890410958904,0.034482758620689655,2051.2528735632186,0.31343283582089554,1038.3432835820895,0.038461538461538464,2152.403846153846,0.2891566265060241,1052.6385542168675,0.14285714285714285,2085.3333333333335,0.3372093023255814,1012.4418604651163,0.05405405405405406,2214.945945945946,0.2867132867132867,1054.6503496503497,0.05714285714285714,1959.9142857142858,0.26865671641791045,1031.410447761194,0.02631578947368421,1939.578947368421
2,35,teleport himself to the airport,impossible,1.0,4.809523809523809,4.5,,,0.04888888888888889,919.5111111111111,0.15384615384615385,2309.423076923077,0.07246376811594203,930.304347826087,0.0,2901.4,0.08888888888888889,890.9666666666667,0.0,2183.0,0.034482758620689655,914.7471264367816,0.0,3165.3571428571427,0.0425531914893617,918.3829787234042,0.10526315789473684,1880.421052631579,0.061068702290076333,867.1068702290077,0.05,1974.5
2,36,levitate and fly to the airport,impossible,1.0,4.909090909090909,4.5,,,0.06306306306306306,976.7522522522522,0.06666666666666667,3019.6,0.0962962962962963,981.0962962962963,0.038461538461538464,2515.076923076923,0.0449438202247191,962.370786516854,0.0625,2297.0,0.023255813953488372,940.1976744186046,0.0625,2820.875,0.07142857142857142,962.1214285714286,0.1,2483.4,0.023255813953488372,935.9767441860465,0.047619047619047616,2285.714285714286
2,37,steal another person's car,immoral,1.3499999999999996,4.869565217391305,1.166666666666667,,,0.43243243243243246,995.7567567567568,0.8076923076923077,1911.8461538461538,0.5581395348837209,999.6511627906976,0.6111111111111112,2041.111111111111,0.22580645161290322,985.0645161290323,0.4,2895.2,0.35714285714285715,907.4285714285714,0.3333333333333333,1796.3333333333333,0.043478260869565216,889.0869565217391,0.0,2750.6666666666665,0.1,854.24,0.0,1984.5
2,38,take a taxi without paying,immoral,1.8499999999999996,4.304347826086956,1.5555555555555554,,,0.625,1115.171875,0.4716981132075472,2362.0377358490564,0.6756756756756757,1079.3783783783783,0.44,2828.92,0.5,1108.7666666666667,0.4666666666666667,2349.4,0.4166666666666667,1109.375,0.15384615384615385,1976.923076923077,0.22727272727272727,1082.590909090909,0.1875,2280.4375,0.2978723404255319,1079.2978723404256,0.13636363636363635,3171.681818181818
2,39,take another driver hostage,immoral,1.4000000000000004,4.826086956521739,1.166666666666667,,,0.35384615384615387,1120.4923076923078,0.7692307692307693,2165.980769230769,0.40540540540540543,1134.972972972973,0.47619047619047616,2505.3333333333335,0.1875,1091.375,0.36363636363636365,2484.818181818182,0.2222222222222222,1064.111111111111,0.09090909090909091,2374.818181818182,0.11904761904761904,1046.6190476190477,0.21428571428571427,1753.7857142857142,0.10204081632653061,1105.7551020408164,0.0,1853.1666666666667
2,40,sneak onto public transportation,immoral,2.4,3.4347826086956523,1.9444444444444446,,,0.6507936507936508,1114.3492063492063,0.8095238095238095,2453.5476190476193,0.6923076923076923,1148.128205128205,0.64,2757.0,0.48484848484848486,1089.5151515151515,0.6470588235294118,2588.4117647058824,0.5925925925925926,1062.962962962963,0.3888888888888889,2335.6111111111113,0.1951219512195122,1082.4146341463415,0.2222222222222222,2092.5555555555557,0.32558139534883723,1029.4418604651162,0.125,2115.0
2,41,beckon a friend passing by,improbable,3.65,3.217391304347826,4.882352941176471,,,0.75,1045.9264705882354,0.8979591836734694,2630.5714285714284,0.7631578947368421,1044.7105263157894,0.8918918918918919,2609.162162162162,0.7647058823529411,1090.5882352941176,0.7894736842105263,2305.1052631578946,0.6521739130434783,1084.0,0.7272727272727273,3185.818181818182,0.7291666666666666,1101.7708333333333,0.7586206896551724,2567.551724137931,0.8787878787878788,1071.4242424242425,0.7714285714285715,2438.1714285714284
2,42,convince airport to delay flight,improbable,1.5499999999999998,4.7727272727272725,2.2777777777777777,,,0.47368421052631576,1196.4736842105262,0.3018867924528302,2290.169811320755,0.5,1134.46875,0.21428571428571427,2670.404761904762,0.42857142857142855,1155.2857142857142,0.14285714285714285,2247.0476190476193,0.2,1201.7,0.375,2134.9583333333335,0.2727272727272727,1218.8181818181818,0.20833333333333334,2314.7916666666665,0.22580645161290322,1161.6774193548388,0.03125,2040.40625
2,43,get a stranger to drive him,improbable,3.0,3.3043478260869565,4.666666666666667,,,0.9420289855072463,995.304347826087,0.9166666666666666,2143.25,0.8421052631578947,999.7105263157895,0.8823529411764706,2707.705882352941,0.8947368421052632,1026.0,0.5833333333333334,2009.0,0.782608695652174,1070.2173913043478,0.7857142857142857,2751.714285714286,0.5,1108.1458333333333,0.32,2253.16,0.7575757575757576,1038.5757575757575,0.5384615384615384,2146.6923076923076
2,44,arrange for a private plane,improbable,1.7999999999999998,4.434782608695652,4.722222222222222,,,0.5942028985507246,1083.8840579710145,0.6666666666666666,2525.6444444444446,0.5,1068.8947368421052,0.6060606060606061,2296.848484848485,0.6111111111111112,1139.111111111111,0.4,2208.866666666667,0.4782608695652174,1040.391304347826,0.25,2358.3,0.15384615384615385,1129.2115384615386,0.4444444444444444,2442.6111111111113,0.3783783783783784,1076.5405405405406,0.15384615384615385,2238.3076923076924
2,45,book a flight for next year,irrational,2.0526315789473686,4.363636363636363,4.25,,,0.618421052631579,1133.6973684210527,0.6046511627906976,2619.5348837209303,0.5625,1074.6458333333333,0.6333333333333333,2743.5333333333333,0.47058823529411764,1069.2941176470588,0.26666666666666666,3108.4,0.28125,1056.0,0.4117647058823529,2125.176470588235,0.2619047619047619,1066.904761904762,0.2222222222222222,2546.9444444444443,0.19148936170212766,1114.7446808510638,0.2777777777777778,2782.222222222222
2,46,sell car for ride to airport,irrational,1.5999999999999996,4.869565217391305,4.0588235294117645,,,0.5,1166.234375,0.5,2648.5454545454545,0.3958333333333333,1142.4166666666667,0.5263157894736842,2731.2105263157896,0.28125,1101.15625,0.42105263157894735,2642.1052631578946,0.26666666666666666,1121.8,0.10526315789473684,2395.157894736842,0.2,1071.0222222222221,0.0,2304.0,0.13636363636363635,1121.5227272727273,0.2,2412.9
2,47,pay 1000 dollars for a ride,irrational,1.6500000000000004,4.782608695652174,4.0,,,0.6052631578947368,1161.5131578947369,0.6341463414634146,2161.048780487805,0.6274509803921569,1067.4117647058824,0.8846153846153846,2151.846153846154,0.48484848484848486,1120.8484848484848,0.45454545454545453,2405.090909090909,0.3125,1052.96875,0.5384615384615384,3180.0,0.2708333333333333,1038.3958333333333,0.1875,2156.6875,0.18181818181818182,1042.4318181818182,0.06666666666666667,2168.8
2,48,try to run there in time,irrational,2.25,4.0,4.705882352941177,,,0.5512820512820513,1132.576923076923,0.5714285714285714,2445.0408163265306,0.5454545454545454,1131.8545454545454,0.7,2823.4666666666667,0.48484848484848486,1146.060606060606,0.5833333333333334,2086.5,0.4,1058.6,0.375,2438.8125,0.5,1123.6304347826087,0.5,2918.1111111111113,0.44680851063829785,1170.1914893617022,0.6,4846.533333333334
3,49,explain the situation to his boss,possible,4.45,1.7826086956521738,4.944444444444445,,,0.9422222222222222,993.7244444444444,0.9692307692307692,2422.353846153846,0.9436619718309859,985.8380281690141,0.9069767441860465,2246.3720930232557,0.9294117647058824,1009.4823529411765,1.0,2266.0625,0.9512195121951219,972.7926829268292,1.0,2034.1538461538462,0.917910447761194,986.7164179104477,0.9411764705882353,2050.9411764705883,0.9069767441860465,953.7751937984497,0.9047619047619048,2505.7619047619046
3,50,ask other employees what to do,possible,4.1,2.1739130434782608,4.833333333333333,,,0.92018779342723,1058.5727699530516,0.9340659340659341,2371.7912087912086,0.9022556390977443,1041.0526315789473,0.8846153846153846,2239.641025641026,0.8690476190476191,1032.2261904761904,0.8387096774193549,2235.483870967742,0.8604651162790697,1006.8837209302326,0.7391304347826086,2294.913043478261,0.7910447761194029,1091.0298507462687,0.625,2507.21875,0.7479674796747967,1051.479674796748,0.7166666666666667,2603.366666666667
3,51,get a payday advance loan,possible,2.7,3.869565217391304,3.9444444444444446,,,0.8090909090909091,1099.6363636363637,0.8362068965517241,2399.051724137931,0.7480314960629921,1084.3385826771653,0.8076923076923077,2554.8205128205127,0.6022727272727273,1067.1477272727273,0.627906976744186,2576.4186046511627,0.5662650602409639,1105.2168674698796,0.6122448979591837,2369.714285714286,0.4076923076923077,1106.6923076923076,0.4423076923076923,2385.903846153846,0.3671875,1105.46875,0.29310344827586204,2278.4827586206898
3,52,sell something he owns for money,possible,3.15,3.4347826086956523,4.222222222222222,,,0.9073170731707317,1110.9170731707318,0.8592592592592593,2506.362962962963,0.7704918032786885,1133.049180327869,0.8541666666666666,2516.53125,0.6708860759493671,1123.4050632911392,0.75,2327.2115384615386,0.7368421052631579,1097.342105263158,0.7068965517241379,3446.6724137931033,0.5083333333333333,1149.1166666666666,0.3611111111111111,3208.7083333333335,0.375,1123.2916666666667,0.45714285714285713,2997.5857142857144
3,53,use money from his own wallet,possible,3.8,2.0434782608695654,4.611111111111111,,,0.9495412844036697,999.545871559633,0.9705882352941176,2114.279411764706,0.927007299270073,1007.3284671532847,0.9285714285714286,2252.214285714286,0.891566265060241,1014.9879518072289,1.0,2678.8947368421054,0.9012345679012346,943.8518518518518,0.9354838709677419,2438.451612903226,0.7394366197183099,1054.0774647887324,0.5686274509803921,2388.4117647058824,0.6640625,1023.25,0.5945945945945946,3241.2432432432433
3,54,add in money from his daily tips,possible,3.5,2.0869565217391304,4.666666666666667,,,0.9068627450980392,1185.2107843137255,0.9285714285714286,2408.1103896103896,0.8879310344827587,1155.2413793103449,0.9514563106796117,2417.4660194174758,0.7710843373493976,1150.5421686746988,0.9183673469387755,2361.183673469388,0.8641975308641975,1163.888888888889,0.9333333333333333,2899.266666666667,0.6434782608695652,1173.1478260869565,0.7674418604651163,2497.6046511627906,0.6129032258064516,1158.241935483871,0.6823529411764706,3253.070588235294
3,55,borrow money from a friend,possible,3.7,2.652173913043478,3.9444444444444446,,,0.9596412556053812,924.6726457399103,0.8421052631578947,2309.4210526315787,0.9051094890510949,926.4817518248175,0.7777777777777778,2248.4166666666665,0.8620689655172413,934.7126436781609,0.85,2327.9,0.8604651162790697,939.5930232558139,0.875,2526.2916666666665,0.6214285714285714,999.1357142857142,0.40476190476190477,2350.7380952380954,0.648854961832061,960.6717557251908,0.5483870967741935,2698.4193548387098
3,56,write a check for $50.75,possible,3.25,3.217391304347826,4.277777777777778,,,0.9272727272727272,1029.990909090909,0.8349514563106796,2453.116504854369,0.8880597014925373,1026.7388059701493,0.8840579710144928,2765.8695652173915,0.8235294117647058,1027.0,0.7352941176470589,2283.970588235294,0.8170731707317073,1055.2926829268292,0.6818181818181818,2412.090909090909,0.6737588652482269,1065.5744680851064,0.4918032786885246,2769.1147540983607,0.6535433070866141,1035.1338582677165,0.4576271186440678,2843.35593220339
3,57,turn the cash register invisible,impossible,1.0,4.947368421052632,2.0,,,0.14215686274509803,1110.6323529411766,0.009259259259259259,2022.5462962962963,0.15625,1117.796875,0.037037037037037035,2174.6543209876545,0.15384615384615385,1094.7435897435898,0.05714285714285714,2129.0857142857144,0.1375,1101.85,0.043478260869565216,2124.1739130434785,0.16923076923076924,1136.9846153846154,0.11666666666666667,2090.3,0.075,1105.725,0.0,2513.6666666666665
3,58,use some monopoly money instead,impossible,1.1052631578947372,4.863636363636363,1.375,,,0.09302325581395349,1100.7023255813954,0.12643678160919541,2339.896551724138,0.15671641791044777,1084.6492537313434,0.08823529411764706,2324.1029411764707,0.060240963855421686,1077.433734939759,0.034482758620689655,2214.344827586207,0.1,1026.7,0.027777777777777776,2218.472222222222,0.11594202898550725,1060.963768115942,0.14705882352941177,2295.6470588235293,0.07633587786259542,1034.4656488549617,0.0,2816.8709677419356
3,59,take pictures of missing bills,impossible,1.4500000000000002,4.571428571428571,2.9166666666666665,,,0.2857142857142857,1160.0333333333333,0.19318181818181818,2602.6420454545455,0.2755905511811024,1158.1417322834645,0.21052631578947367,2986.463157894737,0.18518518518518517,1128.7530864197531,0.10526315789473684,2378.4561403508774,0.2375,1099.225,0.2037037037037037,2776.0925925925926,0.22058823529411764,1109.2058823529412,0.23529411764705882,2668.8529411764707,0.13445378151260504,1095.2773109243697,0.10256410256410256,2600.6923076923076
3,60,get the money by sneezing a lot,impossible,1.0999999999999996,4.9,3.5,,,0.0825242718446602,1080.0728155339805,0.009900990099009901,2472.237623762376,0.11363636363636363,1105.6969696969697,0.028985507246376812,2400.8985507246375,0.09876543209876543,1075.5555555555557,0.125,2277.375,0.05128205128205128,1070.3974358974358,0.0,2108.813953488372,0.09701492537313433,1055.94776119403,0.06,2208.38,0.07258064516129033,1063.6370967741937,0.022222222222222223,2658.177777777778
3,61,overcharge the next customers,immoral,1.5999999999999996,4.086956521739131,1.3529411764705879,,,0.5921052631578947,1080.592105263158,0.696969696969697,2081.181818181818,0.5833333333333334,1079.0,0.6923076923076923,2598.423076923077,0.35294117647058826,1062.1176470588234,0.5454545454545454,1977.7272727272727,0.3225806451612903,959.0967741935484,0.25,3035.75,0.1836734693877551,997.3673469387755,0.0,1853.0,0.043478260869565216,992.6086956521739,0.1,2392.1
3,62,steal money from a coworker,immoral,1.5999999999999996,4.739130434782608,1.117647058823529,,,0.5949367088607594,1016.4810126582279,0.6785714285714286,2154.1785714285716,0.5,1157.076923076923,0.7222222222222222,2087.5,0.3888888888888889,980.5,0.36363636363636365,2399.7272727272725,0.30303030303030304,996.5454545454545,0.7142857142857143,2019.0,0.0425531914893617,903.531914893617,0.0,1964.0,0.10204081632653061,924.5102040816327,0.0,1926.0
3,63,lie about how much the bakery sold,immoral,2.25,3.739130434782609,1.2777777777777777,,,0.5342465753424658,1207.3972602739725,0.75,2387.839285714286,0.66,1203.68,0.7027027027027027,2541.810810810811,0.26666666666666666,1155.7,0.625,2407.25,0.3225806451612903,1127.516129032258,0.4782608695652174,2443.1304347826085,0.07142857142857142,993.2380952380952,0.10526315789473684,2453.4210526315787,0.10869565217391304,1081.6304347826087,0.058823529411764705,2027.5882352941176
3,64,give new customers incorrect change,immoral,1.5499999999999998,4.391304347826087,1.2222222222222223,,,0.5081967213114754,1220.672131147541,0.8,2503.0363636363636,0.3953488372093023,1250.3953488372092,0.6666666666666666,2710.4166666666665,0.26666666666666666,1199.6,0.5,2244.4375,0.23333333333333334,1179.8666666666666,0.4166666666666667,2687.25,0.07142857142857142,1136.7142857142858,0.08333333333333333,1963.2916666666667,0.06521739130434782,1192.7608695652175,0.1875,3093.5625
3,65,find the money on the ground,improbable,2.473684210526316,4.043478260869565,4.611111111111111,,,0.7464788732394366,1091.5352112676057,0.6842105263157895,2078.9736842105262,0.6097560975609756,1105.658536585366,0.8571428571428571,2195.6428571428573,0.5151515151515151,1050.3939393939395,0.6153846153846154,2153.076923076923,0.6551724137931034,1065.7241379310344,0.5,2192.9,0.36585365853658536,1092.4878048780488,0.3684210526315789,2961.684210526316,0.4444444444444444,1158.9777777777779,0.5,2491.65
3,66,discover the money is in his pocket,improbable,3.45,3.8260869565217392,4.277777777777778,,,0.7887323943661971,1140.4647887323943,0.8214285714285714,2397.339285714286,0.8378378378378378,1166.2702702702702,0.6363636363636364,2308.909090909091,0.6363636363636364,1040.4545454545455,0.625,2518.4375,0.6551724137931034,1128.6206896551723,0.5555555555555556,2298.4444444444443,0.4444444444444444,1176.7222222222222,0.4074074074074074,2522.962962962963,0.5609756097560976,1125.0243902439024,0.4375,2546.71875
3,67,get a child to donate the money,improbable,1.2999999999999998,4.681818181818182,2.2777777777777777,,,0.36363636363636365,1161.939393939394,0.3877551020408163,2589.3673469387754,0.3611111111111111,1145.1666666666667,0.34615384615384615,2704.1153846153848,0.09090909090909091,1112.4242424242425,0.3125,2556.25,0.11538461538461539,1096.3461538461538,0.0,2194.2,0.09090909090909091,1085.7954545454545,0.17647058823529413,1891.4705882352941,0.06382978723404255,1035.6808510638298,0.2777777777777778,2181.777777777778
3,68,receive a 100 dollar tip,improbable,3.176470588235294,4.521739130434782,4.611111111111111,,,0.7121212121212122,1059.5454545454545,0.8571428571428571,2314.938775510204,0.6756756756756757,1111.081081081081,0.5454545454545454,2935.9545454545455,0.5,1041.8235294117646,0.46153846153846156,2511.4615384615386,0.6,1086.0333333333333,0.2222222222222222,2890.6666666666665,0.34210526315789475,1103.421052631579,0.391304347826087,2680.3478260869565,0.2857142857142857,1071.6666666666667,0.64,2408.2
3,69,close the store five hours early,irrational,1.25,4.826086956521739,1.6111111111111107,,,0.5,1185.0535714285713,0.5,2594.480769230769,0.2972972972972973,1155.4864864864865,0.3333333333333333,2713.974358974359,0.4117647058823529,1165.6470588235295,0.25,2323.15,0.16666666666666666,1203.5833333333333,0.2857142857142857,2670.9523809523807,0.38,1160.96,0.2,2039.0,0.19444444444444445,1157.7222222222222,0.09523809523809523,1927.4285714285713
3,70,pay with his retirement fund,irrational,2.0,4.260869565217392,4.0625,,,0.6764705882352942,1159.264705882353,0.5652173913043478,2491.8695652173915,0.7027027027027027,1092.3513513513512,0.5555555555555556,2501.222222222222,0.5263157894736842,1191.3157894736842,0.4583333333333333,2283.125,0.43478260869565216,1115.304347826087,0.35294117647058826,2654.6470588235293,0.3125,1080.0,0.25,2447.125,0.3888888888888889,1161.2777777777778,0.3181818181818182,2289.090909090909
3,71,try to invent new pastries,irrational,1.666666666666667,4.363636363636363,4.384615384615385,,,0.26229508196721313,1132.622950819672,0.49056603773584906,2408.566037735849,0.36585365853658536,1146.1463414634147,0.45454545454545453,2410.242424242424,0.1111111111111111,1178.2222222222222,0.42105263157894735,2249.2105263157896,0.13043478260869565,1144.8695652173913,0.125,2245.5833333333335,0.14285714285714285,1131.3469387755101,0.08333333333333333,2248.9583333333335,0.10526315789473684,1114.2631578947369,0.11538461538461539,2820.5
3,72,discount food to encourage tipping,irrational,1.5999999999999996,4.391304347826087,1.8235294117647056,,,0.5,1249.5,0.5882352941176471,3922.6323529411766,0.3793103448275862,1232.344827586207,0.3958333333333333,3290.3541666666665,0.06666666666666667,1166.9333333333334,0.45454545454545453,3098.3030303030305,0.42105263157894735,1158.3684210526317,0.3548387096774194,3177.2258064516127,0.20588235294117646,1195.6470588235295,0.125,2944.15625,0.16666666666666666,1142.2083333333333,0.05263157894736842,2491.3947368421054
4,73,wait to go to the gym tomorrow,possible,4.05,2.347826086956522,4.666666666666667,,,0.8986175115207373,1070.9447004608294,0.9181818181818182,2328.918181818182,0.8515625,1033.6875,0.8108108108108109,3502.027027027027,0.7931034482758621,1040.0459770114942,0.8378378378378378,3083.108108108108,0.8674698795180723,1049.0843373493976,0.8409090909090909,2630.5454545454545,0.7777777777777778,1081.4814814814815,0.5846153846153846,2297.892307692308,0.8442622950819673,1086.0983606557377,0.6567164179104478,2395.4626865671644
4,74,go for a run outside instead,possible,4.7,2.4782608695652173,4.944444444444445,,,0.919431279620853,1035.9194312796208,0.935064935064935,2286.012987012987,0.8802816901408451,1060.0704225352113,0.9661016949152542,2262.0677966101694,0.8148148148148148,1047.4938271604938,0.9032258064516129,2452.548387096774,0.9166666666666666,1028.595238095238,1.0,2198.7948717948716,0.828125,1054.2421875,0.8571428571428571,2126.285714285714,0.8253968253968254,1068.9126984126983,0.9090909090909091,2300.109090909091
4,75,decide to lift weights at home,possible,4.7,2.782608695652174,5.0,,,0.8450704225352113,1137.455399061033,0.9285714285714286,2298.3214285714284,0.8702290076335878,1129.0763358778627,0.9333333333333333,2749.1866666666665,0.7215189873417721,1128.2025316455697,0.8409090909090909,2792.159090909091,0.7435897435897436,1111.2820512820513,0.8297872340425532,2062.851063829787,0.753731343283582,1124.044776119403,0.796875,2531.046875,0.6290322580645161,1130.741935483871,0.9090909090909091,2556.5
4,76,eat lunch instead of working out,possible,3.55,3.217391304347826,4.722222222222222,,,0.8846153846153846,1166.9423076923076,0.9626865671641791,2229.3432835820895,0.832,1155.904,0.9574468085106383,2435.776595744681,0.7215189873417721,1140.012658227848,0.8363636363636363,2355.3818181818183,0.6753246753246753,1152.4415584415585,0.8333333333333334,2399.8333333333335,0.5517241379310345,1177.2586206896551,0.6477272727272727,2531.6477272727275,0.5652173913043478,1142.9739130434782,0.7291666666666666,2478.7291666666665
4,77,use a friend's guest pass,possible,3.9,2.8260869565217392,4.111111111111111,,,0.8954545454545455,983.5545454545454,0.8831168831168831,2691.7272727272725,0.8714285714285714,992.7428571428571,0.8518518518518519,2537.277777777778,0.8518518518518519,948.2345679012345,0.8695652173913043,2379.9565217391305,0.8953488372093024,982.8953488372093,0.6774193548387096,2585.2903225806454,0.6762589928057554,1070.6187050359713,0.7954545454545454,2371.7727272727275,0.6935483870967742,1041.6209677419354,0.8260869565217391,2392.8260869565215
4,78,pay for a one-day gym pass,possible,4.45,2.1739130434782608,4.833333333333333,,,0.9327354260089686,1040.4304932735427,0.9523809523809523,2389.1785714285716,0.9236641221374046,1053.6564885496184,0.9846153846153847,2218.9384615384615,0.8518518518518519,1009.9382716049382,0.9583333333333334,2226.875,0.9534883720930233,1007.4186046511628,0.9736842105263158,3071.7105263157896,0.8723404255319149,1091.1489361702127,0.8431372549019608,2157.6470588235293,0.8837209302325582,1053.3720930232557,0.8620689655172413,2136.6206896551726
4,79,be allowed in just this once,possible,3.1052631578947367,3.217391304347826,4.055555555555555,,,0.8492462311557789,1120.5477386934674,0.7969924812030075,2306.7969924812032,0.7786259541984732,1141.7175572519084,0.7582417582417582,2576.0,0.7215189873417721,1077.139240506329,0.7857142857142857,2610.5476190476193,0.7654320987654321,1096.7777777777778,0.6078431372549019,2595.2549019607845,0.5555555555555556,1145.4603174603174,0.43037974683544306,2457.2911392405063,0.6134453781512605,1107.4033613445379,0.4939759036144578,2337.024096385542
4,80,renew her gym membership,possible,4.6,1.6521739130434783,4.833333333333333,,,0.9459459459459459,935.7567567567568,0.9583333333333334,2216.0833333333335,0.958041958041958,949.9090909090909,0.9393939393939394,2285.2727272727275,0.9080459770114943,938.5747126436781,0.8571428571428571,2544.5238095238096,0.9285714285714286,919.2857142857143,1.0,4142.777777777777,0.9256756756756757,962.9662162162163,0.7727272727272727,2181.6363636363635,0.9848484848484849,921.1136363636364,0.9583333333333334,2505.2083333333335
4,81,turn invisible and go in,impossible,1.0,4.947368421052632,2.2,,,0.049773755656108594,946.9140271493212,0.08163265306122448,2410.530612244898,0.04477611940298507,951.3656716417911,0.02857142857142857,2376.3714285714286,0.044444444444444446,908.8,0.0,2152.3,0.05747126436781609,902.7701149425287,0.0625,2961.5,0.10638297872340426,941.2127659574468,0.1111111111111111,2092.1111111111113,0.05343511450381679,919.6412213740458,0.043478260869565216,2124.478260869565
4,82,wish all gyms to be free forever,impossible,1.6315789473684212,3.608695652173913,4.4,,,0.31521739130434784,1165.7228260869565,0.44505494505494503,2684.252747252747,0.2564102564102564,1191.4615384615386,0.4909090909090909,2774.6181818181817,0.2911392405063291,1153.7848101265822,0.5901639344262295,2305.8524590163934,0.28205128205128205,1143.0897435897436,0.36231884057971014,2660.3333333333335,0.2047244094488189,1117.4015748031495,0.2345679012345679,2511.1111111111113,0.24561403508771928,1132.1315789473683,0.26744186046511625,2357.2441860465115
4,83,renew her membership by blinking,impossible,1.0555555555555554,4.476190476190476,4.0,,,0.3482587064676617,1158.3333333333333,0.03389830508474576,2060.2542372881358,0.5,1133.8809523809523,0.047058823529411764,2132.2235294117645,0.35365853658536583,1151.1707317073171,0.09523809523809523,2118.6190476190477,0.4444444444444444,1121.2222222222222,0.041666666666666664,2503.5416666666665,0.4198473282442748,1116.6946564885495,0.1111111111111111,2093.84126984127,0.4603174603174603,1114.7063492063492,0.0,2048.4057971014495
4,84,turn her hat into a gym pass,impossible,1.0,4.65,3.0,,,0.09523809523809523,1109.4814814814815,0.050724637681159424,2563.3623188405795,0.09166666666666666,1149.6833333333334,0.012195121951219513,2242.670731707317,0.0625,1081.0,0.07894736842105263,2305.4736842105262,0.15384615384615385,1098.3589743589744,0.022727272727272728,2554.840909090909,0.09016393442622951,1062.5655737704917,0.09523809523809523,2263.0158730158732,0.05737704918032787,1092.9754098360656,0.019230769230769232,2318.346153846154
4,85,take someone else's gym card,immoral,1.9500000000000002,4.304347826086956,1.3888888888888893,,,0.75,1053.671875,0.6666666666666666,2432.472222222222,0.6756756756756757,1082.2972972972973,0.4074074074074074,1980.3703703703704,0.7058823529411765,1085.0,0.38461538461538464,2203.0,0.36363636363636365,1126.0454545454545,0.3076923076923077,2475.3076923076924,0.23076923076923078,1073.4423076923076,0.18181818181818182,2220.7272727272725,0.2857142857142857,1079.857142857143,0.17647058823529413,2418.823529411765
4,86,claim she left her wallet inside,immoral,2.8,3.6363636363636362,1.9444444444444446,,,0.8548387096774194,1171.1935483870968,0.7796610169491526,2300.322033898305,0.7222222222222222,1218.8333333333333,0.5555555555555556,2707.4166666666665,0.6923076923076923,1180.7692307692307,0.5416666666666666,2708.5833333333335,0.6363636363636364,1137.3636363636363,0.5185185185185185,2604.6666666666665,0.34782608695652173,1182.0434782608695,0.19230769230769232,2398.9615384615386,0.28125,1249.1875,0.13793103448275862,2706.3793103448274
4,87,sneak past the gym attendant,immoral,2.65,3.9130434782608696,1.666666666666667,,,0.7121212121212122,1060.1515151515152,0.7058823529411765,2422.1176470588234,0.7,1047.1,0.631578947368421,2185.3684210526317,0.5714285714285714,1046.3809523809523,0.5833333333333334,2294.0,0.5652173913043478,1138.0869565217392,0.4117647058823529,2619.235294117647,0.16,1073.18,0.3076923076923077,2130.6153846153848,0.21212121212121213,1129.3939393939395,0.0,1861.125
4,88,go in the back door without paying,immoral,2.4,4.045454545454546,1.4444444444444446,,,0.7543859649122807,1231.701754385965,0.7254901960784313,2573.0196078431372,0.7027027027027027,1224.5405405405406,0.6,2591.525,0.5,1246.9444444444443,0.6956521739130435,2452.0434782608695,0.5454545454545454,1198.3181818181818,0.36666666666666664,2510.733333333333,0.21428571428571427,1185.357142857143,0.13793103448275862,2603.9310344827586,0.3225806451612903,1261.8709677419354,0.07407407407407407,2262.259259259259
4,89,learn the gym stopped checking IDs,improbable,2.9473684210526314,4.434782608695652,4.294117647058823,,,0.5094339622641509,1346.6415094339623,0.7464788732394366,2686.507042253521,0.5,1287.75,0.6666666666666666,2730.4285714285716,0.42857142857142855,1265.107142857143,0.5652173913043478,2567.521739130435,0.3333333333333333,1199.5833333333333,0.4,2948.52,0.3076923076923077,1181.6666666666667,0.21621621621621623,3468.2162162162163,0.15789473684210525,1203.8947368421052,0.2857142857142857,3151.1071428571427
4,90,receive a free lifetime membership,improbable,2.2222222222222223,4.826086956521739,4.529411764705882,,,0.6081081081081081,1116.0675675675675,0.4791666666666667,2426.8125,0.54,1185.54,0.5,2660.8125,0.34375,1169.75,0.15384615384615385,2838.6923076923076,0.43333333333333335,1048.1,0.21428571428571427,2396.4285714285716,0.5434782608695652,1106.195652173913,0.4230769230769231,2451.6923076923076,0.5102040816326531,1147.9183673469388,0.38461538461538464,2947.5384615384614
4,91,find a one-day pass in purse,improbable,3.736842105263158,4.045454545454546,4.611111111111111,,,0.8,1146.2666666666667,0.7,2372.14,0.7959183673469388,1182.3469387755101,0.7714285714285715,2868.4285714285716,0.65625,1115.21875,0.6666666666666666,2319.0,0.7666666666666667,1127.3333333333333,0.6363636363636364,2397.2727272727275,0.5813953488372093,1148.2558139534883,0.7419354838709677,2506.967741935484,0.6818181818181818,1127.8636363636363,0.84,2425.08
4,92,discover the gym is free today,improbable,3.526315789473684,4.565217391304348,4.777777777777778,,,0.7105263157894737,1168.7236842105262,0.7045454545454546,2182.909090909091,0.5686274509803921,1157.8431372549019,0.7352941176470589,2914.205882352941,0.5151515151515151,1156.3939393939395,0.5555555555555556,2161.277777777778,0.6896551724137931,1173.6206896551723,0.3,2704.4,0.4444444444444444,1123.361111111111,0.5333333333333333,2478.8,0.5714285714285714,1193.1904761904761,0.48,2411.96
4,93,decide to never exercise again,irrational,1.5,4.782608695652174,3.6666666666666665,,,0.6571428571428571,1181.7428571428572,0.8837209302325582,2542.1627906976746,0.5714285714285714,1176.942857142857,0.7916666666666666,2240.4166666666665,0.3870967741935484,1085.258064516129,0.46153846153846156,1958.923076923077,0.4166666666666667,1116.625,0.21428571428571427,2096.6428571428573,0.15,1122.4,0.1111111111111111,1903.4444444444443,0.2653061224489796,1073.469387755102,0.05263157894736842,1892.421052631579
4,94,try again in three minutes,irrational,1.7000000000000002,4.523809523809524,3.5,,,0.7166666666666667,1104.0166666666667,0.5348837209302325,2453.279069767442,0.5675675675675675,1118.8108108108108,0.18181818181818182,3063.090909090909,0.3793103448275862,1136.0,0.3333333333333333,2141.3333333333335,0.6153846153846154,1106.3076923076924,0.2,2763.1,0.2631578947368421,1111.2631578947369,0.26666666666666666,2405.4,0.3023255813953488,1002.9767441860465,0.1,2026.05
4,95,complain in a foreign language,irrational,1.4500000000000002,4.590909090909091,3.235294117647059,,,0.38235294117647056,1143.3970588235295,0.723404255319149,2345.404255319149,0.39473684210526316,1089.078947368421,0.48,2462.0,0.21875,1093.15625,0.38461538461538464,2105.3846153846152,0.1724137931034483,1061.4137931034484,0.0,2012.857142857143,0.022222222222222223,1011.5333333333333,0.09090909090909091,2035.4545454545455,0.08163265306122448,1016.204081632653,0.0,1925.75
4,96,run back and forth across lobby,irrational,1.6500000000000004,4.782608695652174,3.8125,,,0.6875,1223.890625,0.8095238095238095,2418.904761904762,0.6470588235294118,1237.6470588235295,0.5806451612903226,2889.967741935484,0.2857142857142857,1099.142857142857,0.375,2375.9166666666665,0.11538461538461539,1223.5384615384614,0.17647058823529413,2171.4117647058824,0.1282051282051282,1235.7692307692307,0.20833333333333334,2079.0,0.2127659574468085,1135.3191489361702,0.125,2244.96875
5,97,run home to get her homework,possible,3.5,2.6363636363636362,4.5,,,0.8611111111111112,1049.587962962963,0.803921568627451,2302.6470588235293,0.8823529411764706,1075.8308823529412,0.7741935483870968,2498.7580645161293,0.8470588235294118,1130.6352941176472,0.6923076923076923,2946.2820512820513,0.8395061728395061,1058.283950617284,0.813953488372093,2026.6976744186047,0.7591240875912408,1091.912408759124,0.6923076923076923,2607.5538461538463,0.8294573643410853,1071.5116279069769,0.6274509803921569,2789.0588235294117
5,98,bring in her homework tomorrow,possible,4.1,1.826086956521739,4.611111111111111,,,0.9400921658986175,1035.9447004608294,0.9574468085106383,2277.276595744681,0.8897058823529411,993.1617647058823,0.9436619718309859,2503.605633802817,0.8795180722891566,1040.8192771084337,0.9,2366.6666666666665,0.9620253164556962,1035.7088607594937,0.9714285714285714,2249.6,0.8714285714285714,1068.3214285714287,0.8727272727272727,2065.5636363636363,0.9,1026.5692307692307,0.9803921568627451,2547.0196078431372
5,99,ask for an extra-credit assignment,possible,4.1,2.5652173913043477,4.888888888888889,,,0.8976744186046511,1073.6372093023256,0.9134615384615384,2173.5,0.8872180451127819,1060.5563909774437,0.9027777777777778,2904.222222222222,0.8953488372093024,1058.3837209302326,0.8333333333333334,2522.133333333333,0.8481012658227848,1051.5569620253164,0.8823529411764706,2278.8627450980393,0.7575757575757576,1092.8333333333333,0.765625,2426.046875,0.751937984496124,1053.7441860465117,0.8208955223880597,2280.402985074627
5,100,ask her mom what she should do,possible,4.1,2.391304347826087,4.944444444444445,,,0.9360730593607306,1064.593607305936,0.8666666666666667,2506.0476190476193,0.8828125,1029.6015625,0.881578947368421,2396.4473684210525,0.8214285714285714,1063.702380952381,0.7837837837837838,2003.054054054054,0.8571428571428571,1006.1785714285714,0.6590909090909091,2603.818181818182,0.7910447761194029,1061.402985074627,0.7910447761194029,2413.3880597014927,0.8346456692913385,1042.5905511811025,0.639344262295082,2647.7704918032787
5,101,explain what happened to her teacher,possible,4.75,1.434782608695652,4.944444444444445,,,0.9315068493150684,986.9269406392694,0.953125,2370.09375,0.9694656488549618,988.0076335877862,0.9555555555555556,2636.6222222222223,0.8863636363636364,1006.2159090909091,1.0,2360.5384615384614,0.9285714285714286,963.047619047619,0.9166666666666666,2964.5833333333335,0.8873239436619719,996.4225352112676,0.8648648648648649,2141.3783783783783,0.921875,993.515625,1.0,3426.542857142857
5,102,quickly redo the homework assignment,possible,3.65,2.5652173913043477,4.666666666666667,,,0.8779342723004695,1083.6760563380283,0.851063829787234,2339.340425531915,0.9015151515151515,1111.0,0.8656716417910447,2196.89552238806,0.8024691358024691,1076.9753086419753,0.9393939393939394,2505.3939393939395,0.8192771084337349,1093.7831325301204,0.8421052631578947,2332.315789473684,0.841726618705036,1086.9424460431655,0.6666666666666666,2439.6521739130435,0.832,1103.776,0.7611940298507462,2423.089552238806
5,103,ask her mom to bring the homework,possible,4.55,2.0,5.0,,,0.9671361502347418,1017.0422535211268,0.9710144927536232,2044.0579710144928,0.9343065693430657,1015.8394160583941,0.9545454545454546,2219.340909090909,0.9047619047619048,1015.6071428571429,0.9090909090909091,2567.7727272727275,0.9518072289156626,984.4939759036145,0.9655172413793104,2154.7241379310344,0.8802816901408451,1002.9788732394367,0.8888888888888888,2074.1944444444443,0.8914728682170543,988.1162790697674,0.9142857142857143,2726.2571428571428
5,104,have her parents call the teacher,possible,3.8,2.9130434782608696,4.333333333333333,,,0.941747572815534,1088.2524271844661,0.9217391304347826,2217.1478260869567,0.9590163934426229,1090.5655737704917,0.8783783783783784,2289.3783783783783,0.8658536585365854,1114.1341463414635,0.8604651162790697,2703.6511627906975,0.9146341463414634,1083.780487804878,0.8653846153846154,2425.519230769231,0.8015267175572519,1128.7404580152672,0.7605633802816901,2461.3802816901407,0.824,1096.752,0.75,2257.1911764705883
5,105,have her homework teleported,impossible,1.0,4.9,4.25,,,0.16981132075471697,1104.7641509433963,0.04285714285714286,2039.7714285714285,0.16176470588235295,1114.264705882353,0.017543859649122806,1937.8245614035088,0.14814814814814814,1097.148148148148,0.0,1884.4761904761904,0.0759493670886076,1100.7974683544303,0.03333333333333333,2049.3,0.1888111888111888,1110.2377622377621,0.17073170731707318,1974.2926829268292,0.112,1072.952,0.08888888888888889,2496.266666666667
5,106,remind herself yesterday evening,impossible,1.7222222222222223,4.15,4.2,,,0.48066298342541436,1201.3591160220994,0.15544041450777202,2577.39378238342,0.37142857142857144,1218.6857142857143,0.140625,2699.90625,0.3380281690140845,1151.8028169014085,0.20967741935483872,2742.2258064516127,0.3055555555555556,1210.125,0.16216216216216217,3650.5135135135133,0.41025641025641024,1166.162393162393,0.24468085106382978,2707.553191489362,0.3474576271186441,1180.3728813559321,0.18627450980392157,2489.8137254901962
5,107,turn in several socks instead,impossible,1.0999999999999996,4.904761904761905,2.3076923076923075,,,0.12376237623762376,1143.0742574257426,0.20634920634920634,2504.0793650793653,0.0916030534351145,1123.557251908397,0.13043478260869565,2353.0289855072465,0.15384615384615385,1105.7692307692307,0.1282051282051282,2356.7179487179487,0.13580246913580246,1080.9753086419753,0.0,2353.714285714286,0.11940298507462686,1070.9701492537313,0.10256410256410256,2112.7948717948716,0.032,1047.68,0.06521739130434782,2223.4347826086955
5,108,erase the teacher's memory,impossible,1.0526315789473681,4.9,1.25,,,0.07692307692307693,1039.633484162896,0.017543859649122806,1937.0526315789473,0.051470588235294115,1041.5588235294117,0.02857142857142857,2197.7714285714287,0.09090909090909091,1016.7840909090909,0.0,1829.6923076923076,0.05952380952380952,1001.7380952380952,0.0625,1980.8125,0.11805555555555555,1012.4791666666666,0.1724137931034483,2083.137931034483,0.06201550387596899,973.1860465116279,0.041666666666666664,2024.2916666666667
5,109,quickly copy someone's homework,immoral,2.3,3.1739130434782608,1.7222222222222223,,,0.8082191780821918,1082.123287671233,0.7777777777777778,2842.4166666666665,0.7619047619047619,1094.2380952380952,0.75,2676.55,0.696969696969697,1048.060606060606,0.5333333333333333,2439.9333333333334,0.6538461538461539,1140.9615384615386,0.6923076923076923,2426.4615384615386,0.23809523809523808,1063.0,0.38461538461538464,1989.6153846153845,0.21739130434782608,1074.7391304347825,0.23809523809523808,2191.809523809524
5,110,put her name on a friend's homework,immoral,1.8947368421052628,4.260869565217392,1.2222222222222223,,,0.671875,1164.21875,0.7878787878787878,2263.9848484848485,0.6666666666666666,1094.6666666666667,0.625,2533.0,0.41379310344827586,1060.3103448275863,0.4117647058823529,2945.0588235294117,0.5,1089.0,0.125,2277.6875,0.11904761904761904,1100.9761904761904,0.125,2740.1875,0.1875,1116.0625,0.16666666666666666,3266.9583333333335
5,111,forge an excuse note,immoral,2.55,3.652173913043478,1.8888888888888893,,,0.734375,1138.015625,0.8771929824561403,2156.561403508772,0.6486486486486487,1174.8648648648648,0.9629629629629629,2779.296296296296,0.5161290322580645,1109.5806451612902,0.5217391304347826,2441.8260869565215,0.48148148148148145,1192.4444444444443,0.4375,2542.25,0.1951219512195122,1109.658536585366,0.25,2103.4375,0.2608695652173913,1122.4347826086957,0.12903225806451613,2461.1612903225805
5,112,lie about being sick to go home,immoral,2.95,3.217391304347826,1.833333333333333,,,0.6923076923076923,1135.1538461538462,0.8181818181818182,2477.163636363636,0.6666666666666666,1168.6153846153845,0.9,2597.8,0.47058823529411764,1123.6176470588234,0.6666666666666666,2604.5555555555557,0.34782608695652173,1068.0,0.5882352941176471,6524.411764705882,0.21951219512195122,1053.8048780487804,0.2777777777777778,3315.1666666666665,0.16666666666666666,1027.6458333333333,0.23529411764705882,2367.3529411764707
5,113,discover her teacher is absent,improbable,3.2222222222222223,4.130434782608695,4.777777777777778,,,0.5625,1175.609375,0.8444444444444444,2166.222222222222,0.4444444444444444,1102.361111111111,0.825,2419.625,0.3125,1147.1875,0.6363636363636364,1982.7272727272727,0.47368421052631576,1125.9473684210527,0.6153846153846154,2469.653846153846,0.2553191489361702,1166.9787234042553,0.2857142857142857,2477.809523809524,0.12903225806451613,1098.516129032258,0.2,2756.7714285714287
5,114,learn school is canceled today,improbable,3.0,4.434782608695652,4.9375,,,0.5409836065573771,1199.1967213114754,0.6981132075471698,2653.754716981132,0.41025641025641024,1140.2820512820513,0.6388888888888888,2857.3611111111113,0.4,1126.8666666666666,0.4666666666666667,2165.4,0.5,1147.909090909091,0.375,2747.25,0.23404255319148937,1164.063829787234,0.3181818181818182,2445.4545454545455,0.1875,1087.15625,0.08695652173913043,2285.0434782608695
5,115,remember she has an extra copy,improbable,3.35,4.304347826086956,4.888888888888889,,,0.7777777777777778,1151.984126984127,0.75,2418.1153846153848,0.7714285714285715,1135.3142857142857,0.8333333333333334,2514.222222222222,0.6,1095.2666666666667,0.7,2689.65,0.6363636363636364,1088.5,0.6538461538461539,2503.153846153846,0.6744186046511628,1157.4651162790697,0.5833333333333334,2618.6666666666665,0.6666666666666666,1061.4444444444443,0.6296296296296297,2777.5185185185187
5,116,be given an A by mistake,improbable,2.1666666666666665,4.6521739130434785,3.2941176470588234,,,0.5806451612903226,1207.2096774193549,0.7454545454545455,2660.9636363636364,0.45714285714285713,1148.942857142857,0.4782608695652174,2421.7608695652175,0.4666666666666667,1072.1333333333334,0.38095238095238093,2169.2380952380954,0.21739130434782608,1150.304347826087,0.38095238095238093,2603.9523809523807,0.20833333333333334,1117.9166666666667,0.16666666666666666,2162.1666666666665,0.20588235294117646,1130.1176470588234,0.07407407407407407,2197.5555555555557
5,117,ask her mom to FedEx the homework,irrational,1.5999999999999996,4.7727272727272725,4.071428571428571,,,0.37333333333333335,1178.64,0.40425531914893614,2222.936170212766,0.3137254901960784,1179.3921568627452,0.38235294117647056,2565.5882352941176,0.1875,1168.375,0.21428571428571427,2483.714285714286,0.15625,1095.46875,0.09090909090909091,3285.181818181818,0.28888888888888886,1070.5555555555557,0.2,2020.0666666666666,0.19047619047619047,1119.5238095238096,0.1875,2262.5625
5,118,look under the lunchroom tables,irrational,1.5499999999999998,4.173913043478261,4.545454545454545,,,0.4166666666666667,1158.3194444444443,0.6170212765957447,2446.8936170212764,0.2653061224489796,1131.5510204081634,0.39285714285714285,3023.0714285714284,0.28125,1060.84375,0.2,2270.2,0.13793103448275862,1082.2068965517242,0.08333333333333333,2568.4166666666665,0.0851063829787234,1064.0212765957447,0.125,2702.0,0.13333333333333333,1084.7333333333333,0.0,2409.9411764705883
5,119,turn in a completely blank page,irrational,1.4000000000000004,4.590909090909091,2.642857142857143,,,0.3384615384615385,1151.3384615384616,0.6170212765957447,2423.446808510638,0.37254901960784315,1111.6470588235295,0.5555555555555556,3072.259259259259,0.18181818181818182,1136.6969696969697,0.06666666666666667,3109.266666666667,0.3225806451612903,1130.967741935484,0.15384615384615385,2095.153846153846,0.08888888888888889,1044.5111111111112,0.0,1841.5,0.044444444444444446,1075.8222222222223,0.14285714285714285,2966.4285714285716
5,120,turn in last week's homework again,irrational,1.4000000000000004,4.333333333333333,2.1875,,,0.463768115942029,1189.5507246376812,0.48333333333333334,2254.383333333333,0.3469387755102041,1176.8979591836735,0.34285714285714286,2687.542857142857,0.375,1140.75,0.35,2367.35,0.26666666666666666,1158.9,0.17647058823529413,2201.705882352941,0.3333333333333333,1051.6444444444444,0.15789473684210525,2221.7368421052633,0.1951219512195122,1125.3658536585365,0.09523809523809523,2236.3333333333335
6,121,stay put and wait for help,possible,4.0,2.4782608695652173,4.888888888888889,,,0.9406392694063926,1039.876712328767,0.9294117647058824,2161.6,0.9117647058823529,1065.889705882353,0.96875,2200.78125,0.8235294117647058,1053.9411764705883,0.9393939393939394,2269.3333333333335,0.9375,1053.625,0.9347826086956522,2333.3695652173915,0.8854961832061069,1074.3053435114505,0.765625,2387.328125,0.84,1093.808,0.7391304347826086,2678.391304347826
6,122,follow a river out of the wilderness,possible,4.05,2.5652173913043477,4.777777777777778,,,0.8866995073891626,1107.231527093596,0.9333333333333333,2418.1481481481483,0.8769230769230769,1136.576923076923,0.8651685393258427,2492.8651685393256,0.9024390243902439,1093.341463414634,0.9591836734693877,2439.3673469387754,0.8552631578947368,1068.092105263158,0.9074074074074074,2783.1666666666665,0.7984496124031008,1156.2868217054263,0.6896551724137931,2757.448275862069,0.8442622950819673,1135.22131147541,0.8125,2765.8375
6,123,alert rescuers with emergency flares,possible,4.5,1.9565217391304348,4.666666666666667,,,0.946078431372549,1135.186274509804,0.9354838709677419,2221.5241935483873,0.9212598425196851,1126.4566929133857,0.974025974025974,2250.2337662337663,0.8888888888888888,1101.5802469135801,0.9444444444444444,2026.7222222222222,0.9594594594594594,1079.7702702702702,0.9607843137254902,2095.2156862745096,0.8676470588235294,1152.889705882353,0.8985507246376812,2040.2463768115942,0.9416666666666667,1120.6,0.9565217391304348,2015.9130434782608
6,124,find a river for fresh water and fish,possible,4.5,2.217391304347826,4.777777777777778,,,0.9384615384615385,1096.7128205128206,0.9652777777777778,2305.8263888888887,0.9296875,1090.421875,0.975,2514.225,0.8607594936708861,1091.4810126582279,1.0,2449.3571428571427,0.9102564102564102,1076.9102564102564,0.9482758620689655,2604.189655172414,0.875,1110.0703125,0.9210526315789473,3019.5,0.9130434782608695,1131.7043478260869,0.9651162790697675,3380.6279069767443
6,125,get more food by hunting and fishing,possible,4.6,2.090909090909091,4.722222222222222,,,0.9234449760765551,1103.6459330143541,0.9622641509433962,2346.330188679245,0.959349593495935,1098.8699186991869,0.9661016949152542,2227.0338983050847,0.9024390243902439,1109.5243902439024,0.9705882352941176,2229.264705882353,0.9024390243902439,1098.841463414634,0.875,2118.7083333333335,0.8955223880597015,1102.5671641791046,0.9206349206349206,2991.0,0.8688524590163934,1113.3360655737704,0.927536231884058,2825.782608695652
6,126,build a large fire to alert rescuers,possible,4.4,2.391304347826087,4.611111111111111,,,0.9402985074626866,1135.3681592039802,0.9384615384615385,2364.0846153846155,0.8863636363636364,1118.628787878788,0.9875,2233.975,0.8414634146341463,1108.7926829268292,0.95,2168.575,0.935064935064935,1103.6753246753246,0.9629629629629629,2209.6481481481483,0.8549618320610687,1091.3129770992366,0.76,2402.7733333333335,0.8487394957983193,1123.7394957983192,0.9206349206349206,2616.4761904761904
6,127,create a shelter to stay warm,possible,4.45,1.826086956521739,4.777777777777778,,,0.9441860465116279,1027.6511627906978,0.9571428571428572,2104.8285714285716,0.9361702127659575,1014.9645390070922,0.9818181818181818,2202.418181818182,0.9310344827586207,1052.2413793103449,1.0,2109.5,0.9620253164556962,968.5316455696203,0.9583333333333334,2102.75,0.9037037037037037,988.0222222222222,0.8947368421052632,2276.842105263158,0.9552238805970149,1009.776119402985,1.0,1992.4324324324325
6,128,be found by the rescue crew,possible,4.4,2.4347826086956523,4.882352941176471,,,0.9036697247706422,989.6788990825688,0.9506172839506173,2215.3703703703704,0.9264705882352942,990.5220588235294,0.918918918918919,2103.3513513513512,0.9090909090909091,1014.2954545454545,0.9310344827586207,2016.5862068965516,0.9634146341463414,1006.2926829268292,0.9655172413793104,2212.2758620689656,0.9069767441860465,1052.906976744186,0.9019607843137255,2552.8039215686276,0.9327731092436975,1072.142857142857,0.9818181818181818,2293.890909090909
6,129,use his mind to keep everyone warm,impossible,1.3684210526315788,4.666666666666667,3.5714285714285716,,,0.31840796019900497,1166.6666666666667,0.06756756756756757,2296.189189189189,0.2857142857142857,1203.4117647058824,0.07777777777777778,2885.8777777777777,0.2289156626506024,1126.301204819277,0.038461538461538464,2123.923076923077,0.38666666666666666,1185.1733333333334,0.09230769230769231,2443.630769230769,0.4032258064516129,1147.516129032258,0.1095890410958904,2657.027397260274,0.26785714285714285,1164.9285714285713,0.12048192771084337,2453.9638554216867
6,130,make new jackets from pine trees,impossible,1.3499999999999996,4.409090909090909,4.846153846153847,,,0.2832369942196532,1202.7687861271677,0.15656565656565657,2942.0555555555557,0.32142857142857145,1238.4017857142858,0.20512820512820512,2905.4017094017095,0.25,1195.578125,0.136986301369863,2488.931506849315,0.19718309859154928,1210.281690140845,0.1527777777777778,2517.347222222222,0.30833333333333335,1220.0333333333333,0.20454545454545456,2600.4772727272725,0.26666666666666666,1200.2285714285715,0.14814814814814814,2662.1944444444443
6,131,alert airplanes overhead  by yelling,impossible,1.5999999999999996,4.0,4.8,,,0.6084656084656085,1178.047619047619,0.3016759776536313,2520.782122905028,0.5882352941176471,1161.3025210084033,0.24528301886792453,2812.509433962264,0.5138888888888888,1144.1944444444443,0.3220338983050847,2359.0508474576272,0.6533333333333333,1168.56,0.3333333333333333,2613.063492063492,0.5691056910569106,1164.878048780488,0.2840909090909091,2407.159090909091,0.6611570247933884,1158.5454545454545,0.26595744680851063,2333.308510638298
6,132,grind up rocks for food and water,impossible,1.2000000000000002,4.842105263157895,4.0,,,0.24242424242424243,1157.9292929292928,0.12195121951219512,2624.743902439024,0.24786324786324787,1147.1025641025642,0.02830188679245283,2341.4622641509436,0.1643835616438356,1137.2739726027398,0.09836065573770492,2300.1475409836066,0.28205128205128205,1139.0,0.06557377049180328,2593.4918032786886,0.1885245901639344,1156.467213114754,0.1282051282051282,2282.858974358974,0.19008264462809918,1162.9338842975208,0.044444444444444446,2353.722222222222
6,133,secretly take his friends' food,immoral,2.2,3.8260869565217392,1.333333333333333,,,0.7432432432432432,1162.162162162162,0.7894736842105263,2019.5263157894738,0.5925925925925926,1160.9814814814815,0.7333333333333333,2328.7,0.5666666666666667,1120.9666666666667,0.7,2092.0,0.45161290322580644,1098.5806451612902,0.3684210526315789,2170.2631578947367,0.16666666666666666,1046.9285714285713,0.1111111111111111,2180.6666666666665,0.15555555555555556,1064.9777777777779,0.14285714285714285,2111.0
6,134,leave the weakest people behind,immoral,2.4,4.391304347826087,2.0,,,0.6756756756756757,1194.581081081081,0.8837209302325582,2272.3023255813955,0.5192307692307693,1192.6538461538462,0.78125,2355.375,0.5454545454545454,1118.0,0.5714285714285714,2335.5714285714284,0.22580645161290322,1122.516129032258,0.4444444444444444,2177.6666666666665,0.11363636363636363,1120.6136363636363,0.05555555555555555,2662.6666666666665,0.023809523809523808,1129.8333333333333,0.2,2203.8
6,135,rob other hikers they meet,immoral,1.7999999999999998,4.666666666666667,1.2777777777777777,,,0.5405405405405406,1133.1486486486488,0.8536585365853658,2405.9024390243903,0.47058823529411764,1103.7254901960785,0.7333333333333333,2827.233333333333,0.35294117647058826,1071.8823529411766,0.4,2915.0666666666666,0.2647058823529412,1094.4411764705883,0.5714285714285714,2483.285714285714,0.10638297872340426,1009.3404255319149,0.05555555555555555,1900.0555555555557,0.06666666666666667,1024.8444444444444,0.14285714285714285,2191.785714285714
6,136,kill his friend's pet dog for food,immoral,1.9000000000000004,4.608695652173913,1.7058823529411766,,,0.4444444444444444,1115.486111111111,0.7450980392156863,2395.549019607843,0.5454545454545454,1139.8363636363636,0.6176470588235294,3168.764705882353,0.24242424242424243,1030.1515151515152,0.5294117647058824,2638.235294117647,0.12903225806451613,975.2258064516129,0.4375,2229.125,0.06666666666666667,970.6888888888889,0.21428571428571427,2315.5714285714284,0.06382978723404255,1002.2765957446809,0.14285714285714285,8205.642857142857
6,137,find thermal vent to keep warm,improbable,2.65,4.521739130434782,4.666666666666667,,,0.6307692307692307,1202.0923076923077,0.582089552238806,2670.208955223881,0.6666666666666666,1228.6363636363637,0.6470588235294118,2735.294117647059,0.5517241379310345,1171.6896551724137,0.5454545454545454,2840.590909090909,0.76,1147.8,0.5454545454545454,2564.8636363636365,0.7575757575757576,1155.5757575757575,0.4642857142857143,2419.964285714286,0.6818181818181818,1182.5454545454545,0.6153846153846154,2741.7179487179487
6,138,find stream showing the path out,improbable,3.85,2.6956521739130435,4.944444444444445,,,0.8870967741935484,1152.6451612903227,0.9310344827586207,2948.1724137931033,0.9166666666666666,1178.138888888889,0.8387096774193549,2956.1290322580644,0.78125,1230.8125,0.9047619047619048,3433.2380952380954,0.8461538461538461,1164.8076923076924,0.9411764705882353,2690.294117647059,0.8235294117647058,1130.2058823529412,0.5806451612903226,2947.967741935484,0.9024390243902439,1133.0243902439024,0.813953488372093,2763.5813953488373
6,139,meet a former expedition guide,improbable,3.210526315789474,4.521739130434782,4.647058823529411,,,0.6515151515151515,1176.0151515151515,0.6666666666666666,2573.126984126984,0.6896551724137931,1206.7586206896551,0.6923076923076923,2822.5,0.5454545454545454,1171.3939393939395,0.5909090909090909,2205.9545454545455,0.56,1111.68,0.25,2463.0625,0.4166666666666667,1187.0277777777778,0.3333333333333333,2464.5925925925926,0.6,1156.575,0.4418604651162791,2989.5348837209303
6,140,find an abandoned bear cave,improbable,2.45,3.9130434782608696,4.75,,,0.6349206349206349,1180.0,0.8983050847457628,2390.9661016949153,0.5277777777777778,1196.611111111111,0.8461538461538461,2863.5384615384614,0.5357142857142857,1167.9642857142858,0.7272727272727273,2524.2272727272725,0.5185185185185185,1182.148148148148,0.55,2356.85,0.35,1169.425,0.2777777777777778,2230.3333333333335,0.38095238095238093,1167.7857142857142,0.42105263157894735,2619.9736842105262
6,141,go hunting for water buffalo,irrational,1.9000000000000004,4.2272727272727275,4.266666666666667,,,0.59375,1111.859375,0.48,2663.18,0.6842105263157895,1043.7368421052631,0.48484848484848486,2963.7272727272725,0.47619047619047616,1124.2380952380952,0.45,2781.7,0.5238095238095238,1069.142857142857,0.2916666666666667,3716.25,0.37254901960784315,1097.862745098039,0.375,2629.9583333333335,0.35135135135135137,1110.8648648648648,0.2692307692307692,2536.230769230769
6,142,eat random berries and leaves,irrational,2.75,2.608695652173913,4.222222222222222,,,0.7878787878787878,1062.2272727272727,0.9166666666666666,2537.3055555555557,0.8636363636363636,1081.6363636363637,0.8214285714285714,2193.6785714285716,0.875,1088.1875,0.5384615384615384,2229.3846153846152,0.6818181818181818,1056.8181818181818,0.46153846153846156,2913.846153846154,0.46938775510204084,1097.0204081632653,0.05263157894736842,2123.5263157894738,0.5757575757575758,1143.878787878788,0.3076923076923077,2406.0384615384614
6,143,each venture off independently,irrational,1.7999999999999998,4.304347826086956,3.5,,,0.5471698113207547,1166.8301886792453,0.9107142857142857,2604.9285714285716,0.6585365853658537,1060.341463414634,0.6666666666666666,2487.595238095238,0.6111111111111112,1076.7777777777778,0.5384615384615384,2511.923076923077,0.5,1080.2272727272727,0.39285714285714285,2697.1428571428573,0.16666666666666666,1069.1666666666667,0.047619047619047616,2135.5238095238096,0.2571428571428571,1077.8857142857144,0.09090909090909091,2510.681818181818
6,144,eat all their food immediately,irrational,1.4000000000000004,4.565217391304348,2.2222222222222223,,,0.8125,1136.4375,0.8478260869565217,2146.4565217391305,0.6578947368421053,1060.8157894736842,0.625,2235.25,0.6,1124.65,0.5,2192.25,0.6190476190476191,1112.904761904762,0.3157894736842105,1934.4736842105262,0.22641509433962265,1104.9056603773586,0.13333333333333333,2391.0666666666666,0.23529411764705882,1080.7058823529412,0.0625,1941.5625
7,177, steal your favorite sculpture.,immoral,,,,,,0.4074074074074074,1051.6913580246915,0.46511627906976744,3461.767441860465,0.29545454545454547,1082.9318181818182,0.21052631578947367,2299.4736842105262,0.11363636363636363,976.0227272727273,0.36363636363636365,2056.090909090909,0.08695652173913043,980.9565217391304,0.3333333333333333,2002.4444444444443,0.0,901.2608695652174,0.0,2688.25,0.045454545454545456,888.9772727272727,0.25,2281.5
7,178, transform into a very large seal.,impossible,,,,,,0.07142857142857142,1047.4285714285713,0.024390243902439025,2224.487804878049,0.07692307692307693,1079.1025641025642,0.14285714285714285,2345.6190476190477,0.0,1054.111111111111,0.0,2803.8888888888887,0.021739130434782608,984.5869565217391,0.1111111111111111,2143.1111111111113,0.02127659574468085,1010.8936170212766,0.0,2177.0833333333335,0.02564102564102564,969.0512820512821,0.0,2135.1111111111113
7,179, teleport back to your apartment.,impossible,,,,,,0.03488372093023256,982.9418604651163,0.11538461538461539,1977.0384615384614,0.0,985.4047619047619,0.0,2463.909090909091,0.06666666666666667,912.9555555555555,0.0,2764.3333333333335,0.0,892.7777777777778,0.0,1794.75,0.0,888.063829787234,0.0,2609.5,0.023255813953488372,915.1162790697674,0.0,3152.0
7,180, break the arm of a security guard.,immoral,,,,,,0.4367816091954023,1056.3563218390805,0.6,2525.02,0.37209302325581395,1065.0232558139535,0.47368421052631576,2623.157894736842,0.1702127659574468,993.7021276595744,0.375,2302.125,0.09302325581395349,930.2325581395348,0.0,2056.8571428571427,0.021739130434782608,916.5434782608696,0.0,2640.4444444444443,0.024390243902439025,889.439024390244,0.0,3001.3333333333335
7,181, throw an exhibit out the window.,immoral,,,,,,0.3875,1071.4375,0.42857142857142855,2742.3809523809523,0.275,1081.975,0.29411764705882354,2506.1176470588234,0.16666666666666666,1039.857142857143,0.2857142857142857,2078.1428571428573,0.13043478260869565,994.0217391304348,0.15384615384615385,2500.076923076923,0.0,1007.1333333333333,0.0,2303.0,0.046511627906976744,951.7441860465116,0.0,1876.7777777777778
7,182, discuss an exhibit with a friend.,ordinary,,,,,,0.872093023255814,1030.2674418604652,0.9444444444444444,2168.6666666666665,0.8095238095238095,1037.595238095238,0.8823529411764706,2442.0,0.8913043478260869,1010.7608695652174,1.0,2046.6666666666667,0.9130434782608695,1009.7391304347826,1.0,1873.9285714285713,0.7450980392156863,1052.0588235294117,0.9,3902.5,0.9285714285714286,1023.7857142857143,0.9333333333333333,1858.4
7,183, admire your favorite painting.,ordinary,,,,,,0.9438202247191011,947.314606741573,0.9642857142857143,3439.464285714286,0.9,980.875,1.0,1986.0833333333333,0.9795918367346939,998.2448979591836,1.0,2787.8888888888887,0.9047619047619048,962.952380952381,1.0,1860.8333333333333,0.8775510204081632,969.5510204081633,0.9166666666666666,2109.9166666666665,0.9318181818181818,990.5,0.8571428571428571,2035.857142857143
7,184, read the placard by an exhibit.,ordinary,,,,,,0.9024390243902439,1143.4024390243903,0.9642857142857143,2358.375,0.875,1090.225,0.9090909090909091,2250.409090909091,0.8636363636363636,1088.159090909091,1.0,2494.5454545454545,0.926829268292683,1122.0975609756097,0.9375,2358.0625,0.7317073170731707,1126.658536585366,0.8888888888888888,2426.1111111111113,0.7317073170731707,1080.2439024390244,0.9375,2393.0
7,185, ignore the guard and bring your bag.,flouting,,,,,,0.6266666666666667,1151.12,0.7534246575342466,2667.794520547945,0.5882352941176471,1148.4117647058824,0.4482758620689655,2355.5862068965516,0.3333333333333333,1095.5833333333333,0.35,2239.95,0.3488372093023256,1078.046511627907,0.4,2659.72,0.044444444444444446,1098.2888888888888,0.1875,2389.875,0.07894736842105263,1085.0,0.047619047619047616,2561.2380952380954
7,186, rest on a bench for a moment.,ordinary,,,,,,0.9397590361445783,1083.3253012048192,0.9555555555555556,2486.8,0.9302325581395349,1003.6744186046511,0.8571428571428571,2111.0714285714284,0.7021276595744681,1061.0,1.0,1902.2,0.813953488372093,968.9767441860465,1.0,2522.25,0.8888888888888888,1043.2888888888888,0.7857142857142857,2450.9285714285716,0.825,989.85,0.8,2634.133333333333
7,187, stand on a bench for a better view.,flouting,,,,,,0.8953488372093024,1112.593023255814,0.921875,2411.015625,0.717948717948718,1155.1025641025642,0.7777777777777778,2497.6296296296296,0.7333333333333333,1154.3333333333333,0.55,2538.65,0.625,1063.05,0.5294117647058824,2169.8823529411766,0.375,1109.7291666666667,0.13043478260869565,2506.7391304347825,0.18421052631578946,1063.0263157894738,0.2,2344.15
7,188, secretly adjust a painting.,flouting,,,,,,0.6578947368421053,1105.842105263158,0.75,2345.6323529411766,0.6923076923076923,1112.6153846153845,0.4230769230769231,2645.1153846153848,0.391304347826087,1182.3695652173913,0.34782608695652173,2076.478260869565,0.2,1027.525,0.11764705882352941,2254.529411764706,0.1276595744680851,1144.0212765957447,0.058823529411764705,2395.8823529411766,0.1951219512195122,1034.9024390243903,0.0,1843.4
7,189, have a conversation with a painting.,impossible,,,,,,0.725,1054.1375,0.43636363636363634,2491.9636363636364,0.825,1031.75,0.6896551724137931,2421.137931034483,0.6304347826086957,1137.2391304347825,0.42105263157894735,2355.2631578947367,0.575,1022.55,0.3157894736842105,2151.9473684210525,0.6222222222222222,1079.1555555555556,0.10526315789473684,2914.9473684210525,0.5384615384615384,1049.025641025641,0.125,2221.0833333333335
7,190, levitate above the other patrons.,impossible,,,,,,0.05813953488372093,1003.7790697674419,0.029411764705882353,2353.676470588235,0.047619047619047616,1058.3095238095239,0.0,2345.6666666666665,0.041666666666666664,980.7916666666666,0.0,2525.909090909091,0.021739130434782608,949.2608695652174,0.0,2285.0,0.05,908.525,0.0,2652.909090909091,0.022727272727272728,1023.5227272727273,0.0,2675.5
7,191, crabwalk through the main exhibit.,flouting,,,,,,0.4050632911392405,1092.6708860759493,0.7213114754098361,2346.7377049180327,0.4090909090909091,1163.5681818181818,0.5625,3154.375,0.3333333333333333,1075.7333333333333,0.4,2755.866666666667,0.09523809523809523,1063.595238095238,0.26666666666666666,2355.4,0.0,988.9130434782609,0.0,3171.090909090909,0.047619047619047616,965.047619047619,0.08333333333333333,2947.4166666666665
7,192, rip a painting into small pieces.,immoral,,,,,,0.5060240963855421,1108.8915662650602,0.5660377358490566,2473.9811320754716,0.29545454545454547,1039.25,0.21052631578947367,2438.0526315789475,0.17777777777777778,1056.4666666666667,0.1111111111111111,2432.3333333333335,0.13953488372093023,1004.6511627906976,0.08333333333333333,2061.5,0.0,960.2727272727273,0.0,2184.714285714286,0.022727272727272728,946.5681818181819,0.0,1747.0
8,161,  read the minds of fellow diners.,impossible,,,,,,0.17647058823529413,1098.8470588235293,0.15384615384615385,4291.538461538462,0.10256410256410256,998.5897435897435,0.10526315789473684,1788.6842105263158,0.022727272727272728,1002.2727272727273,0.1111111111111111,1908.111111111111,0.10526315789473684,991.8157894736842,0.125,2320.5625,0.041666666666666664,938.0208333333334,0.06666666666666667,3513.5333333333333,0.06382978723404255,960.6808510638298,0.0,2483.375
8,162,  take a bite of your meal.,ordinary,,,,,,0.978021978021978,975.5274725274726,0.9629629629629629,3555.259259259259,0.9473684210526315,905.2631578947369,0.8666666666666667,2112.2,0.9607843137254902,962.3137254901961,1.0,1902.875,0.9512195121951219,900.0,1.0,2130.0,0.9183673469387755,896.8367346938776,1.0,2428.0,0.875,895.5,0.8,2943.4
8,163,  eat one-hundred veggie pizzas.,impossible,,,,,,0.3466666666666667,1107.0933333333332,0.14925373134328357,2669.3880597014927,0.4,1059.2,0.0967741935483871,2779.483870967742,0.2,1104.8,0.058823529411764705,1996.0,0.15789473684210525,1045.4736842105262,0.0,2279.318181818182,0.11904761904761904,941.0714285714286,0.045454545454545456,2429.7272727272725,0.06382978723404255,1010.468085106383,0.0,2172.4666666666667
8,164,  make a salad at the salad bar.,ordinary,,,,,,0.9444444444444444,1035.2222222222222,0.875,2295.075,0.918918918918919,975.4054054054054,0.7333333333333333,2573.866666666667,0.9583333333333334,980.2708333333334,0.7777777777777778,1912.888888888889,0.8536585365853658,999.0243902439024,0.8333333333333334,2398.0,0.86,923.48,0.7058823529411765,2510.8823529411766,0.9111111111111111,957.7111111111111,0.9166666666666666,3094.3333333333335
8,165,  steal plates for your kitchen.,immoral,,,,,,0.5617977528089888,1080.5505617977528,0.6078431372549019,3040.1372549019607,0.4857142857142857,1070.1714285714286,0.2608695652173913,2359.782608695652,0.2765957446808511,999.063829787234,0.2857142857142857,2610.714285714286,0.15,1011.025,0.06666666666666667,1979.6666666666667,0.02,904.78,0.0,2548.0714285714284,0.020833333333333332,933.6458333333334,0.0,1977.625
8,166,  set fire to the pizza station.,immoral,,,,,,0.38461538461538464,1054.5054945054944,0.5849056603773585,2631.188679245283,0.3055555555555556,974.9722222222222,0.45,2513.7,0.2,972.4888888888889,0.625,2341.25,0.1,904.25,0.0,2358.222222222222,0.04081632653061224,850.265306122449,0.08333333333333333,2140.4166666666665,0.0,920.1086956521739,0.0,3271.2
8,167,  kill a dining hall employee.,immoral,,,,,,0.30337078651685395,1054.0337078651685,0.5,2281.5208333333335,0.325,1012.95,0.2631578947368421,2193.684210526316,0.24444444444444444,1004.0888888888888,0.4444444444444444,2413.6666666666665,0.0,859.1315789473684,0.0,3931.2,0.02,840.1,0.0,2375.6666666666665,0.041666666666666664,882.0208333333334,0.0,2202.5
8,168,  walk around the room barefoot.,flouting,,,,,,0.7142857142857143,1145.095238095238,0.7049180327868853,2282.6721311475408,0.6,1115.1142857142856,0.37037037037037035,2058.074074074074,0.391304347826087,1136.5,0.15384615384615385,2001.7692307692307,0.2894736842105263,1058.921052631579,0.05263157894736842,1851.3157894736842,0.08888888888888889,1065.7333333333333,0.0,2579.4117647058824,0.06521739130434782,1017.304347826087,0.09090909090909091,2256.090909090909
8,169, wait in line for your food.,ordinary,,,,,,0.968421052631579,992.7473684210527,0.967741935483871,2909.3548387096776,0.8947368421052632,912.7368421052631,0.9285714285714286,1993.5714285714287,0.9782608695652174,932.0652173913044,0.5,1833.25,0.9285714285714286,1014.3571428571429,1.0,2867.375,0.88,906.22,0.8571428571428571,2620.285714285714,0.9183673469387755,933.7551020408164,1.0,3286.5
8,170,  grow another head on your back.,impossible,,,,,,0.09302325581395349,1111.8720930232557,0.07894736842105263,2824.1315789473683,0.05555555555555555,1030.7777777777778,0.047619047619047616,2447.190476190476,0.12244897959183673,1049.2448979591836,0.0,2040.5555555555557,0.0,976.4736842105264,0.0,1886.642857142857,0.0851063829787234,982.7659574468086,0.0,2709.6153846153848,0.022222222222222223,1030.6444444444444,0.0,2816.1428571428573
8,171,  sit down at a random family's table.,flouting,,,,,,0.7702702702702703,1140.418918918919,0.75,2260.470588235294,0.631578947368421,1163.2105263157894,0.6,2988.4,0.5116279069767442,1196.4418604651162,0.2,2036.75,0.358974358974359,1141.6923076923076,0.14285714285714285,2654.4285714285716,0.23255813953488372,1061.906976744186,0.1111111111111111,2733.3703703703704,0.20454545454545456,1114.090909090909,0.0625,2210.8125
8,172,  stab someone with a fork.,immoral,,,,,,0.45555555555555555,1001.8555555555556,0.5555555555555556,2127.185185185185,0.35,973.075,0.3684210526315789,2257.157894736842,0.23529411764705882,949.9411764705883,0.6,2326.6,0.17073170731707318,958.6585365853658,0.0,1907.0,0.0,847.72,0.1111111111111111,2510.8888888888887,0.02040816326530612,851.8979591836735,0.0,3945.3333333333335
8,173,  sit on the floor to eat your food.,flouting,,,,,,0.7037037037037037,1139.7283950617284,0.6949152542372882,3418.6610169491523,0.5641025641025641,1046.1025641025642,0.32142857142857145,2313.464285714286,0.35555555555555557,1065.8,0.35714285714285715,2428.3571428571427,0.28205128205128205,1064.7948717948718,0.0,2016.7,0.08163265306122448,997.9591836734694,0.045454545454545456,3695.2272727272725,0.10638297872340426,1008.7872340425532,0.0,3131.8333333333335
8,174,  climb inside of a bowl of cereal.,impossible,,,,,,0.21348314606741572,1145.752808988764,0.02040816326530612,2078.5102040816328,0.15789473684210525,1007.8421052631579,0.13043478260869565,2120.8695652173915,0.02040816326530612,1095.0816326530612,0.0,2037.1,0.0,975.3421052631579,0.0,1864.8666666666666,0.02040816326530612,941.6530612244898,0.0,2390.222222222222,0.0425531914893617,962.7872340425532,0.0,2557.4166666666665
8,175,  take an entire serving platter of food.,flouting,,,,,,0.7857142857142857,1147.1309523809523,0.8888888888888888,2796.2638888888887,0.75,1151.1944444444443,0.6,3026.5714285714284,0.6744186046511628,1164.2790697674418,0.5,2808.2,0.5483870967741935,1200.4193548387098,0.46153846153846156,2608.346153846154,0.5952380952380952,1088.0238095238096,0.30303030303030304,3423.3636363636365,0.32558139534883723,1141.5116279069769,0.3076923076923077,2650.346153846154
8,176,  thank a dining hall employee.,ordinary,,,,,,0.898876404494382,1125.4943820224719,0.9782608695652174,2564.2391304347825,0.8823529411764706,1082.8235294117646,0.8421052631578947,2326.315789473684,0.8333333333333334,1071.047619047619,0.9166666666666666,2295.8333333333335,0.9024390243902439,1081.5853658536585,0.9285714285714286,2303.4285714285716,0.851063829787234,1008.2765957446809,0.9090909090909091,2576.818181818182,0.8260869565217391,1020.0652173913044,1.0,2736.0
9,145,  exit having aged seventeen years,impossible,,,,,,0.2112676056338028,1211.9718309859154,0.05,2621.85,0.13793103448275862,1167.3793103448277,0.05555555555555555,3045.8888888888887,0.025,1157.425,0.09090909090909091,2528.0454545454545,0.07692307692307693,1072.5384615384614,0.0,2206.478260869565,0.02564102564102564,1121.7692307692307,0.0,2855.6666666666665,0.02564102564102564,1133.923076923077,0.03571428571428571,2456.714285714286
9,146,  take a book without checking it out.,immoral,,,,,,0.8117647058823529,1159.6823529411765,0.7540983606557377,2443.901639344262,0.6176470588235294,1108.0,0.42857142857142855,2272.6071428571427,0.5106382978723404,1183.659574468085,0.5882352941176471,2376.0588235294117,0.38095238095238093,1150.547619047619,0.1111111111111111,2075.9444444444443,0.13953488372093023,1067.1627906976744,0.0,4459.409090909091,0.047619047619047616,1126.8333333333333,0.0,1936.6875
9,147,  place cookbooks in the kid's section.,flouting,,,,,,0.6666666666666666,1168.679012345679,0.8421052631578947,2560.5789473684213,0.5,1170.764705882353,0.6428571428571429,2872.9285714285716,0.32608695652173914,1183.0652173913043,0.48,2267.28,0.2,1164.2,0.22727272727272727,2220.4545454545455,0.15217391304347827,1039.5,0.037037037037037035,2483.1111111111113,0.08823529411764706,1075.5294117647059,0.0,2315.5416666666665
9,148,  leave a book to soak in a toilet.,immoral,,,,,,0.5625,1219.6875,0.6712328767123288,2662.4520547945203,0.37142857142857144,1135.7714285714285,0.3870967741935484,2589.451612903226,0.17777777777777778,1115.6666666666667,0.2727272727272727,2492.818181818182,0.12195121951219512,1085.9268292682927,0.15384615384615385,2352.769230769231,0.022727272727272728,1033.75,0.0,4026.0,0.0,1067.5121951219512,0.0,2008.4375
9,149, ask the librarian for advice.,ordinary,,,,,,0.9479166666666666,1026.84375,0.96,2267.96,1.0,964.5121951219512,1.0,1724.5,0.9807692307692307,969.75,0.8571428571428571,1972.142857142857,0.9574468085106383,969.5744680851063,1.0,1872.6666666666667,0.9565217391304348,917.2173913043479,0.9166666666666666,2981.6666666666665,0.9302325581395349,909.8139534883721,1.0,1700.0
9,150,  read one book's inside cover.,ordinary,,,,,,0.925531914893617,1136.0425531914893,0.9545454545454546,2473.8030303030305,0.9473684210526315,1076.1052631578948,0.9285714285714286,2679.1071428571427,0.8913043478260869,1094.391304347826,0.85,2661.35,0.8333333333333334,1109.142857142857,1.0,2278.4117647058824,0.7560975609756098,1143.3170731707316,0.90625,2650.34375,0.8974358974358975,1108.3333333333333,0.9655172413793104,2290.4137931034484
9,151,  check out three different books.,ordinary,,,,,,0.9081632653061225,1062.1734693877552,1.0,2705.4102564102564,0.925,1079.25,1.0,2226.8823529411766,0.9615384615384616,1032.5,1.0,2232.7,0.8666666666666667,1007.0666666666667,0.9,1766.2,0.9130434782608695,1050.0869565217392,0.8888888888888888,2226.9444444444443,0.7619047619047619,1081.0238095238096,1.0,2401.0666666666666
9,152,  drink from the water fountain.,ordinary,,,,,,0.8817204301075269,998.2043010752689,0.9259259259259259,2127.5555555555557,0.8837209302325582,1011.7209302325581,0.6666666666666666,2020.4,0.8076923076923077,975.1153846153846,1.0,2115.3333333333335,0.717391304347826,936.3695652173913,1.0,2013.625,0.8,1001.4222222222222,0.625,2911.0625,0.7560975609756098,992.9756097560976,0.8125,2531.75
9,153,  make all the books disappear.,impossible,,,,,,0.18681318681318682,1084.8131868131868,0.1282051282051282,2201.769230769231,0.2,1067.9,0.07142857142857142,2123.5,0.07407407407407407,1000.074074074074,0.0,1737.142857142857,0.10869565217391304,1016.5869565217391,0.0,1823.0,0.0851063829787234,942.4468085106383,0.0,2558.214285714286,0.022727272727272728,1000.9090909090909,0.0,3982.3333333333335
9,154,  push someone down the stairs.,immoral,,,,,,0.5274725274725275,1061.5604395604396,0.7291666666666666,2453.5416666666665,0.3076923076923077,1059.5384615384614,0.3157894736842105,2174.684210526316,0.18,1005.54,0.42857142857142855,1734.857142857143,0.08695652173913043,977.6739130434783,0.14285714285714285,2058.5714285714284,0.02127659574468085,894.9574468085107,0.0,1921.0,0.023809523809523808,916.6666666666666,0.0,2016.2857142857142
9,155,  hide a dead body in the bathroom.,immoral,,,,,,0.20689655172413793,1135.896551724138,0.5,2923.64,0.14634146341463414,1080.3658536585365,0.1875,2601.0625,0.061224489795918366,913.469387755102,0.4,2771.8,0.044444444444444446,930.9111111111112,0.4,1977.2,0.0,883.3125,0.0,4475.307692307692,0.0,935.1190476190476,0.0,1906.875
9,156,  scream at the top of your lungs.,flouting,,,,,,0.6947368421052632,1011.3894736842105,0.7575757575757576,2223.121212121212,0.45,970.725,0.3,2241.15,0.1509433962264151,951.0,0.42857142857142855,1976.0,0.06521739130434782,918.7608695652174,0.0,2022.3333333333333,0.0,863.6904761904761,0.0,2112.4,0.04878048780487805,857.9024390243902,0.0,2088.75
9,157,  read every book in the building.,impossible,,,,,,0.5287356321839081,1094.3333333333333,0.3,2373.6,0.5128205128205128,1049.948717948718,0.25,2684.0,0.3137254901960784,1069.235294117647,0.5,2461.9166666666665,0.27906976744186046,1035.093023255814,0.0,2283.4,0.2608695652173913,1047.6521739130435,0.15789473684210525,2851.157894736842,0.3170731707317073,1027.0975609756097,0.47058823529411764,3509.705882352941
9,158,  melt your least favorite book.,impossible,,,,,,0.2441860465116279,1116.1279069767443,0.19298245614035087,2542.2105263157896,0.16216216216216217,1064.3783783783783,0.26666666666666666,2959.633333333333,0.09090909090909091,1080.0,0.0,2743.9444444444443,0.09523809523809523,1060.904761904762,0.15384615384615385,2361.846153846154,0.045454545454545456,988.5909090909091,0.045454545454545456,2246.818181818182,0.10256410256410256,995.4615384615385,0.0,1805.9333333333334
9,159,  play music on a portable speaker.,flouting,,,,,,0.7441860465116279,1141.1744186046512,0.7076923076923077,2344.9846153846156,0.5263157894736842,1094.6842105263158,0.36,2503.8,0.29411764705882354,1096.7254901960785,0.2,2343.8,0.30952380952380953,1069.3809523809523,0.0,2146.0,0.13043478260869565,1005.1739130434783,0.047619047619047616,3139.714285714286,0.1590909090909091,1014.0,0.0,3044.266666666667
9,160,  set up an elaborate cooking spread.,flouting,,,,,,0.3717948717948718,1194.871794871795,0.21794871794871795,2632.8846153846152,0.2,1231.4285714285713,0.16129032258064516,2548.3225806451615,0.1702127659574468,1162.872340425532,0.2,2055.0,0.09523809523809523,1084.6190476190477,0.07142857142857142,1975.5,0.04878048780487805,1029.3658536585365,0.0,3693.375,0.04878048780487805,1109.9756097560976,0.058823529411764705,2563.764705882353
10,193,  shatter one of the plane's windows.,immoral,,,,,,0.2840909090909091,1127.4886363636363,0.35185185185185186,2638.314814814815,0.21052631578947367,1154.921052631579,0.15384615384615385,2419.6923076923076,0.09302325581395349,1081.5581395348838,0.16666666666666666,2451.777777777778,0.08695652173913043,1022.9782608695652,0.0,3003.3333333333335,0.023255813953488372,919.9767441860465,0.0,2232.0,0.046511627906976744,937.2558139534884,0.0,2907.5714285714284
10,194,  watch a movie you have downloaded.,ordinary,,,,,,0.8804347826086957,1159.2391304347825,0.9411764705882353,2118.235294117647,0.8536585365853658,1061.2682926829268,0.9565217391304348,2431.217391304348,0.8863636363636364,1109.659090909091,1.0,2084.0,0.75,1020.3409090909091,0.9,1699.3,0.7435897435897436,1010.8717948717949,1.0,2020.611111111111,0.813953488372093,1024.2790697674418,0.9,2432.9
10,195,  do a magazine crossword puzzle.,ordinary,,,,,,0.8585858585858586,1075.3434343434344,0.9310344827586207,2213.2413793103447,0.925,1003.025,1.0,2311.4,0.8444444444444444,993.4888888888889,0.9166666666666666,2846.75,0.8571428571428571,954.1224489795918,1.0,2050.6666666666665,0.8571428571428571,974.9761904761905,0.9333333333333333,2177.0666666666666,0.8837209302325582,964.0930232558139,0.9,1937.1
10,196,  force the plane to go backwards.,impossible,,,,,,0.14583333333333334,1126.0833333333333,0.11627906976744186,2305.7906976744184,0.13157894736842105,1006.3157894736842,0.07142857142857142,1955.4285714285713,0.0,1015.952380952381,0.14285714285714285,1715.857142857143,0.041666666666666664,988.2291666666666,0.0,1803.0,0.0,914.925,0.0,2420.4285714285716,0.023809523809523808,964.5,0.0,2022.1
10,197,  stand on top of your seat and shout.,flouting,,,,,,0.6867469879518072,1174.3734939759036,0.6229508196721312,2393.55737704918,0.4594594594594595,1123.5135135135135,0.43333333333333335,2765.3333333333335,0.2564102564102564,1084.6410256410256,0.5,2531.65,0.10869565217391304,1032.2173913043478,0.14285714285714285,1666.2857142857142,0.075,1004.575,0.0,2055.4545454545455,0.023255813953488372,1023.7209302325581,0.0,3271.125
10,198,  steal extra snacks from the cart.,immoral,,,,,,0.7731958762886598,1142.6082474226805,0.7380952380952381,2222.809523809524,0.6666666666666666,1024.611111111111,0.5769230769230769,3267.230769230769,0.2972972972972973,1064.2162162162163,0.3157894736842105,3002.315789473684,0.2765957446808511,1049.7021276595744,0.2857142857142857,2001.7142857142858,0.075,934.225,0.0625,2387.3125,0.07317073170731707,962.3170731707318,0.0,2121.1666666666665
10,199,  poison the drink of your seatmate.,immoral,,,,,,0.28125,1145.2083333333333,0.41818181818181815,3152.490909090909,0.24390243902439024,1035.7073170731708,0.2631578947368421,2347.3684210526317,0.09302325581395349,945.046511627907,0.3076923076923077,2177.0,0.0425531914893617,938.4042553191489,0.0,2294.5,0.025,857.775,0.0,2321.25,0.023255813953488372,835.2325581395348,0.0,1974.4444444444443
10,200,  ask people to give up their first-class seats.,flouting,,,,,,0.6904761904761905,1251.6666666666667,0.6571428571428571,2718.9142857142856,0.5625,1197.40625,0.5428571428571428,2949.114285714286,0.37142857142857144,1177.3142857142857,0.5,2143.5882352941176,0.3,1158.425,0.1111111111111111,2228.1111111111113,0.10526315789473684,1135.3157894736842,0.0,2449.8571428571427,0.024390243902439025,1184.9024390243903,0.0,2144.653846153846
10,201,  stop the engine with your thoughts.,impossible,,,,,,0.12087912087912088,1178.3736263736264,0.023809523809523808,2158.0238095238096,0.09523809523809523,1016.6190476190476,0.0,2373.818181818182,0.0,1029.5714285714287,0.15384615384615385,1797.5384615384614,0.043478260869565216,961.1739130434783,0.0,1629.1666666666667,0.0,894.9487179487179,0.0,2352.818181818182,0.0,901.5348837209302,0.08333333333333333,3327.6666666666665
10,202,  ask the attendant for some peanuts.,ordinary,,,,,,0.9381443298969072,1105.2268041237114,0.96875,2287.40625,0.9512195121951219,1005.1463414634146,0.9473684210526315,2474.2105263157896,0.9069767441860465,1074.4651162790697,1.0,2165.1,0.9,1057.52,0.9,2194.3,0.8536585365853658,1031.8536585365853,0.9444444444444444,2059.4444444444443,0.9285714285714286,1068.5714285714287,0.9090909090909091,1968.8181818181818
10,203,  take a dance exercise class.,impossible,,,,,,0.28125,1127.6458333333333,0.0784313725490196,2346.705882352941,0.2,991.85,0.08,2259.92,0.11627906976744186,1046.8372093023256,0.08333333333333333,2389.25,0.10638297872340426,954.2553191489362,0.0,1850.5,0.0,920.975,0.1,2702.6,0.09302325581395349,898.5813953488372,0.1,2876.5
10,204,  demand twenty-five bags of peanuts.,flouting,,,,,,0.5357142857142857,1215.1904761904761,0.6923076923076923,2326.0307692307692,0.45714285714285713,1079.6857142857143,0.4722222222222222,2669.6388888888887,0.23684210526315788,1117.3157894736842,0.2962962962962963,2218.037037037037,0.06666666666666667,1033.111111111111,0.2222222222222222,1801.5555555555557,0.04878048780487805,1022.9024390243902,0.0,2752.3888888888887,0.047619047619047616,1013.1904761904761,0.0,2094.6315789473683
10,205,  start the next chapter of your book.,ordinary,,,,,,0.9010989010989011,1177.010989010989,0.9736842105263158,2702.184210526316,0.8947368421052632,1048.078947368421,1.0,2317.6666666666665,0.9230769230769231,1075.2564102564102,0.8947368421052632,2119.5789473684213,0.8775510204081632,1065.6530612244899,0.75,2390.625,0.775,1047.95,0.9090909090909091,2501.2272727272725,0.8333333333333334,1058.4761904761904,1.0,2800.866666666667
10,206,  put your bag in the middle of the aisle.,flouting,,,,,,0.8222222222222222,1158.911111111111,0.8125,2434.375,0.8157894736842105,1140.1315789473683,0.48484848484848486,2447.878787878788,0.4864864864864865,1175.3243243243244,0.28,2377.88,0.40476190476190477,1147.7142857142858,0.21052631578947367,1920.4736842105262,0.2972972972972973,1134.3513513513512,0.12,2436.56,0.2682926829268293,1106.121951219512,0.05,2195.05
10,207,  hold the plane's pilot as hostage.,immoral,,,,,,0.4065934065934066,1151.7472527472528,0.4603174603174603,2615.8888888888887,0.21951219512195122,1123.439024390244,0.45454545454545453,2675.2272727272725,0.14634146341463414,1069.5853658536585,0.11764705882352941,2118.0588235294117,0.061224489795918366,987.4285714285714,0.0,1898.25,0.0,971.2380952380952,0.0,2489.45,0.047619047619047616,950.4285714285714,0.0,2260.3571428571427
10,208,  turn the attendant into a mouse.,impossible,,,,,,0.2604166666666667,1219.9479166666667,0.06382978723404255,2137.4893617021276,0.125,1108.025,0.0,2445.85,0.06976744186046512,1120.7441860465117,0.0,1835.8666666666666,0.14893617021276595,1070.468085106383,0.1,2338.9,0.025,1073.025,0.0,2281.0,0.125,1081.85,0.07692307692307693,2971.3076923076924
11,241,  mentally recite your agenda items.,ordinary,,,,,,0.797752808988764,1241.9775280898875,0.9607843137254902,2321.0392156862745,0.7073170731707317,1108.3170731707316,0.9230769230769231,2477.923076923077,0.7560975609756098,1089.7073170731708,0.8571428571428571,2058.1428571428573,0.6585365853658537,1152.3902439024391,0.8095238095238095,1968.142857142857,0.6842105263157895,1122.1052631578948,0.875,2272.6666666666665,0.4878048780487805,1148.1707317073171,0.7619047619047619,2182.1428571428573
11,242,  park in the middle of the highway.,immoral,,,,,,0.6022727272727273,1100.1022727272727,0.4727272727272727,2845.4727272727273,0.5111111111111111,1078.8222222222223,0.38461538461538464,2500.576923076923,0.2682926829268293,999.3414634146342,0.21052631578947367,2102.0526315789475,0.0975609756097561,1109.8048780487804,0.0,2006.9333333333334,0.05,1023.45,0.0,2077.125,0.06521739130434782,1014.2608695652174,0.08333333333333333,2585.6666666666665
11,243,  go on a long scenic walk,flouting,,,,,,0.5833333333333334,1069.9895833333333,0.5365853658536586,2902.170731707317,0.6097560975609756,995.780487804878,0.391304347826087,2791.913043478261,0.5121951219512195,1074.341463414634,0.2777777777777778,2767.6666666666665,0.4523809523809524,1078.952380952381,0.3333333333333333,2408.0666666666666,0.24324324324324326,1015.8648648648649,0.19047619047619047,2305.5238095238096,0.1951219512195122,983.7317073170732,0.35294117647058826,2250.176470588235
