condition2,trialNo,target,condition1,mRating_irrational,mRating_improbable,mRating_immoral,mRating_abnormal,mRating_goodness,poss_resp_sp,poss_RT_sp,poss_resp_rf,poss_RT_rf,could_resp_sp,could_RT_sp,could_resp_rf,could_RT_rf,may_resp_sp,may_RT_sp,may_resp_rf,may_RT_rf,might_resp_sp,might_RT_sp,might_resp_rf,might_RT_rf,ought_resp_sp,ought_RT_sp,ought_resp_rf,ought_RT_rf,should_resp_sp,should_RT_sp,should_resp_rf,should_RT_rf
1,1,sells some of his stocks or bonds,possible,4.25,2.217391304,4.777777778,,,0.849056604,1094.79717,0.941176471,2216.666667,0.8359375,1107.117188,0.98630137,2372.123288,0.75308642,1134.271605,0.918918919,2364.756757,0.780487805,1057.878049,0.884615385,2119.307692,0.712121212,1092.537879,0.86440678,2259.728814,0.775193798,1120,0.919354839,2128.419355
1,2,use a generic medication instead,possible,4.3,2.391304348,4.777777778,,,0.887850467,1095.584112,0.89380531,2490.40708,0.8828125,1083.078125,0.869565217,2333.811594,0.792682927,1056.902439,1,2379.333333,0.894117647,1033.211765,0.818181818,2318.545455,0.781021898,1086.437956,0.859375,2204.796875,0.771653543,1121.826772,0.872727273,2584.2
1,3,buy a different insurance plan,possible,3.65,2.739130435,4.555555556,,,0.909090909,1036.481818,0.818181818,2257.686869,0.866666667,1052.881481,0.892307692,2479.615385,0.804878049,1034.670732,0.775,2918.575,0.890243902,1048.280488,0.777777778,2297.688889,0.84496124,1061.806202,0.746031746,2381.809524,0.84496124,1045.255814,0.714285714,2381.380952
1,4,enroll in federal healthcare,possible,4.3,2.52173913,4.611111111,,,0.898148148,1089.569444,0.865979381,2314.082474,0.888059701,1066.858209,0.927536232,2595.57971,0.752941176,1054.188235,0.918918919,2372.945946,0.870588235,1061.776471,0.857142857,2274.833333,0.857142857,1080.571429,0.854545455,2295.363636,0.775193798,1078.689922,0.873015873,2349.539683
1,5,borrow the money from a bank,possible,4.5,2.260869565,4.611111111,,,0.959641256,940.32287,0.873015873,2220.031746,0.933333333,1111.103704,0.95,2118.925,0.91954023,1018.252874,1,2551.333333,0.952941176,928.9294118,0.84,2148.28,0.871428571,1009.75,0.717948718,2452.974359,0.937984496,992.6356589,0.85,2413.375
1,6,be given the money by a friend,possible,4.315789474,2.347826087,4.666666667,,,0.941463415,1034.385366,0.963414634,2169.378049,0.894736842,1052.458647,0.984126984,2090.126984,0.906976744,1059.569767,1,2387.966667,0.918604651,1027.523256,0.9,2375.25,0.807407407,1089.422222,0.846153846,2495.215385,0.859375,1088.078125,0.9,2489.2
1,7,loan the money from his family,possible,4.15,1.826086957,4.555555556,,,0.9408867,1085.62069,0.876712329,2660.027397,0.909836066,1081.47541,0.873684211,2909.968421,0.842105263,1100.039474,0.872727273,2906.054545,0.87804878,1141.231707,0.862068966,2964.689655,0.801587302,1121.5,0.795454545,2606.465909,0.830508475,1122.830508,0.875,2741.989583
1,8,sell an extra car for the money,possible,3.55,2.454545455,4.777777778,,,0.888372093,1069.497674,0.931623932,2348.837607,0.892307692,1169.007692,0.947368421,2395.223684,0.728395062,1051.901235,0.857142857,2577.214286,0.839506173,1040.975309,0.860465116,2262.488372,0.666666667,1097.282609,0.85915493,2360.830986,0.8,1068.824,0.923076923,2182.784615
1,9,be given the money by a turtle,impossible,1.111111111,4.9,4.75,,,0.122641509,1077.410377,0.052631579,2205.463158,0.096,1074.608,0.03030303,2184.939394,0.162790698,1073.953488,0.03030303,2444.151515,0.155844156,1083.194805,0.065217391,2167.521739,0.105263158,1091.736842,0.102040816,2244.204082,0.12,1088.848,0,2902
1,10,make the money time traveling,impossible,1.055555556,4.9,4.6,,,0.25,1094.274038,0.0390625,2145.6875,0.271317829,1134.899225,0.028169014,2199.225352,0.180722892,1099.096386,0.023809524,2511.97619,0.142857143,1095.649351,0.071428571,2292.547619,0.260869565,1126.101449,0.137931034,2503.637931,0.193548387,1103.717742,0.01754386,2031.859649
1,11,grow the money on a tree,impossible,1.157894737,4.894736842,4.4,,,0.076576577,969.472973,0.102564103,2041.512821,0.079710145,971.4565217,0.034482759,2303.413793,0.105882353,939.2588235,0,2177,0.094117647,943.9764706,0,2338.625,0.107913669,968.647482,0.125,2296.0625,0.079365079,941.9047619,0.045454545,2218.454545
1,12,get the money by clapping,impossible,1.15,4.9,4.363636364,,,0.110599078,1070.686636,0.090909091,2161.443182,0.128787879,1060.174242,0.056603774,2002.622642,0.12195122,1043.707317,0,2055.5,0.070588235,1061.376471,0,2182.176471,0.118518519,1062.088889,0.177777778,2132.688889,0.062015504,1039.837209,0,1952.526316
1,13,steal the money from his work,immoral,2,4.47826087,1.277777778,,,0.772727273,1050.621212,0.72,2207.88,0.609756098,1030.512195,0.545454545,2067.5,0.631578947,1064.052632,0.333333333,4408,0.541666667,979.25,0.416666667,2257.333333,0.235294118,976.8431373,0.1,2017.5,0.105263158,998.2894737,0,1854
1,14,blackmail someone for the money,immoral,1.7,4.52173913,1.388888889,,,0.565217391,1029.318841,0.76,2141.12,0.476190476,1004.952381,0.64,2009.52,0.470588235,1130.764706,0.428571429,2303.285714,0.416666667,1044.583333,0.375,3108,0.169811321,972.754717,0,3195,0.111111111,990.8333333,0,1908.1
1,15,commit credit card fraud,immoral,2.05,4.347826087,1.222222222,,,0.621212121,1040,0.771428571,2347.314286,0.625,1000.575,0.576923077,2460.653846,0.555555556,1038.611111,0.416666667,2125.083333,0.458333333,1053.916667,0.461538462,2639.461538,0.196078431,944.6078431,0.333333333,1925.5,0.108108108,969.7567568,0.090909091,1944.909091
1,16,get the medicine by stealing,immoral,2.35,4.130434783,1.388888889,,,0.696969697,1096.272727,0.837837838,2209.054054,0.658536585,1092.195122,0.52,2121.88,0.611111111,1129.222222,0.5,2213.583333,0.5,1030.590909,0.333333333,2188.733333,0.31372549,1059.882353,0.25,2262.85,0.228571429,1108.657143,0.166666667,1857.666667
1,17,be  given the medicine by  a doctor,improbable,3.45,3.652173913,4.777777778,,,0.909090909,1056.363636,0.743589744,2478.461538,0.865384615,1108.076923,0.916666667,2775.083333,0.931034483,1085.413793,0.8,2067.933333,0.774193548,1095.677419,0.818181818,2482.409091,0.833333333,1113.214286,0.714285714,2368.142857,0.755555556,1048.733333,0.75,2457.9
1,18,inherit money from a close relative,improbable,3.473684211,3.869565217,4.823529412,,,0.886075949,1064.075949,0.827586207,2124.103448,0.754716981,1095.264151,0.9375,2131.5625,0.833333333,1092.7,0.733333333,2298,0.6875,1069.625,0.529411765,2298,0.543478261,1082.326087,0.526315789,2745.526316,0.659090909,1077.954545,0.65,2743.75
1,19,receive the money from a stranger,improbable,2.894736842,4.130434783,4.611111111,,,0.814814815,1084.888889,0.69047619,2412.690476,0.8,1084.74,0.769230769,2049.461538,0.484848485,1117.878788,0.416666667,2236.166667,0.59375,1043.15625,0.375,2189.375,0.431818182,1122.340909,0.473684211,2391.684211,0.47826087,1122.326087,0.45,3904.05
1,20,discover a cheap new medicine,improbable,2.75,4.043478261,4.555555556,,,0.657894737,1126.881579,0.675675676,2401.783784,0.673913043,1126.086957,0.625,2876.28125,0.625,1182.5625,0.538461538,2348.384615,0.633333333,1044.6,0.533333333,2975.933333,0.553191489,1129.914894,0.333333333,2641.185185,0.568181818,1159.090909,0.529411765,2696
1,21,sell his own medication,irrational,2.1,4.260869565,3.611111111,,,0.810810811,1041.743243,0.523809524,2364.309524,0.714285714,1073.738095,0.375,3354.625,0.411764706,1092.970588,0.357142857,2085.142857,0.678571429,1093.821429,0.363636364,2222.090909,0.155555556,1167.644444,0.142857143,1930.428571,0.272727273,1047.022727,0.115384615,2157.461538
1,22,sell all his clothes for money,irrational,2.15,3.695652174,4.611111111,,,0.861111111,1049.319444,0.766666667,2371.633333,0.925,1088.3,0.619047619,2538.047619,0.5,1047.735294,0.692307692,2607.692308,0.75862069,1054.689655,0.583333333,2038,0.5,1088.454545,0.411764706,2606.294118,0.47826087,1083.934783,0.242424242,2355.727273
1,23,go on strike until wages increase,irrational,1.85,4.434782609,3.352941176,,,0.491803279,1346.967213,0.526315789,2877.964912,0.421052632,1233.447368,0.620689655,2724,0.310344828,1101.344828,0.4,2510.7,0.25,1168.428571,0.071428571,2067.357143,0.125,1154.85,0.3,3165.1,0.186046512,1116.930233,0.107142857,2275.5
1,24,try random other medicines,irrational,1.55,3.913043478,2.833333333,,,0.681818182,1175.075758,0.607142857,2180.982143,0.638888889,1198.944444,0.366666667,2656.2,0.484848485,1113.575758,0.6,2278.15,0.666666667,1127.633333,0.277777778,1914.055556,0.205128205,1132.282051,0.333333333,2280.809524,0.428571429,1496.244898,0.137931034,2286.965517
2,25,reschedule for a later flight,possible,,2.565217391,4.605263158,,,0.911214953,1030.476636,0.896907216,2268.051546,0.914728682,1041,0.941176471,2272.745098,0.908045977,1019.068966,0.961538462,2351.5,0.952941176,1000.035294,0.921052632,2747.552632,0.846715328,1051.029197,0.851851852,2317.907407,0.821705426,1025.844961,0.857142857,2297.053571
2,26,ask the gas station clerk for help,possible,3.75,2.826086957,4.666666667,,,0.869791667,1154.916667,0.885135135,2407.391892,0.821138211,1146.943089,0.926315789,3325.136842,0.756410256,1158.089744,0.795918367,2355.22449,0.784810127,1148.708861,0.754098361,2618.590164,0.679389313,1153.137405,0.756410256,2476.282051,0.731707317,1140.642276,0.686046512,2420.290698
2,27,take the public bus there,possible,4.75,2.130434783,4.888888889,,,0.940639269,990.0821918,0.895348837,2426.906977,0.911111111,998.7111111,0.879310345,2558.5,0.952941176,977.1647059,0.888888889,2477.481481,0.939759036,948.1325301,0.806451613,2507.903226,0.948529412,991.0220588,0.914893617,2300.12766,0.940740741,983.2074074,0.857142857,2462.619048
2,28,request aiport shuttle pickup,possible,3.75,2.434782609,4.705882353,,,0.900473934,1080.037915,0.883928571,2580.607143,0.906976744,1080.527132,0.831168831,2593.545455,0.890243902,1077.219512,0.846153846,2522.692308,0.879518072,1050.13253,0.844444444,2949.977778,0.816176471,1103.647059,0.762711864,2474.067797,0.850393701,1052.055118,0.852941176,2421.073529
2,29,ask a relative to pick him up,possible,4.65,1.652173913,4.777777778,,,0.963636364,976.7227273,0.84,2318.06,0.948905109,975.3430657,0.852941176,2456.176471,0.88372093,971.7325581,0.916666667,2350.375,0.929411765,963.5058824,0.92,2389.2,0.936170213,993.5744681,0.85,2946.6,0.961538462,968.3538462,0.888888889,2157.111111
2,30,hail a taxi at the intersection,possible,4.35,2.086956522,4.666666667,,,0.926605505,1021.536697,0.851485149,2537.534653,0.926470588,1047.801471,0.877192982,2411.105263,0.888888889,1015.098765,0.818181818,2674.454545,0.941176471,1005.2,0.764705882,2917.411765,0.896551724,1056.324138,0.79245283,2339,0.897637795,989.7165354,0.844444444,2645.688889
2,31,call a friend for a ride,possible,4.4,1.608695652,4.722222222,,,0.950892857,891.4285714,0.970588235,2324.147059,0.941605839,912.7226277,1,2447.1,0.954545455,899.8977273,0.916666667,2321,0.953488372,886.7790698,1,2575.357143,0.931034483,923,0.84,2179.64,0.954198473,891.6793893,0.826086957,2401.347826
2,32,take public transportation,possible,4.6,1.956521739,4.888888889,,,0.938053097,899.6858407,0.808510638,2378.276596,0.935251799,918,0.875,2703.78125,0.941860465,879.5,0.8125,7245.1875,0.913580247,846.1851852,0.9375,3697.625,0.945578231,932.9863946,0.741935484,2219,0.946153846,908.4153846,0.818181818,2652
2,33,get a new car by thinking,impossible,1.105263158,4.954545455,4.25,,,0.273170732,1071.917073,0.065217391,2217.152174,0.224,1119.64,0.050847458,2305.542373,0.222222222,1068.185185,0.043478261,2117.217391,0.160493827,1043.54321,0.055555556,2340.027778,0.201492537,1055.679104,0.104166667,2051.729167,0.139344262,1074.467213,0,2680.64
2,34,ride a cat to the airport,impossible,1.05,4.772727273,4,,,0.292237443,1091.890411,0.034482759,2051.252874,0.313432836,1038.343284,0.038461538,2152.403846,0.289156627,1052.638554,0.142857143,2085.333333,0.337209302,1012.44186,0.054054054,2214.945946,0.286713287,1054.65035,0.057142857,1959.914286,0.268656716,1031.410448,0.026315789,1939.578947
2,35,teleport himself to the airport,impossible,1,4.80952381,4.5,,,0.048888889,919.5111111,0.153846154,2309.423077,0.072463768,930.3043478,0,2901.4,0.088888889,890.9666667,0,2183,0.034482759,914.7471264,0,3165.357143,0.042553191,918.3829787,0.105263158,1880.421053,0.061068702,867.1068702,0.05,1974.5
2,36,levitate and fly to the airport,impossible,1,4.909090909,4.5,,,0.063063063,976.7522523,0.066666667,3019.6,0.096296296,981.0962963,0.038461538,2515.076923,0.04494382,962.3707865,0.0625,2297,0.023255814,940.1976744,0.0625,2820.875,0.071428571,962.1214286,0.1,2483.4,0.023255814,935.9767442,0.047619048,2285.714286
2,37,steal another person's car,immoral,1.35,4.869565217,1.166666667,,,0.432432432,995.7567568,0.807692308,1911.846154,0.558139535,999.6511628,0.611111111,2041.111111,0.225806452,985.0645161,0.4,2895.2,0.357142857,907.4285714,0.333333333,1796.333333,0.043478261,889.0869565,0,2750.666667,0.1,854.24,0,1984.5
2,38,take a taxi without paying,immoral,1.85,4.304347826,1.555555556,,,0.625,1115.171875,0.471698113,2362.037736,0.675675676,1079.378378,0.44,2828.92,0.5,1108.766667,0.466666667,2349.4,0.416666667,1109.375,0.153846154,1976.923077,0.227272727,1082.590909,0.1875,2280.4375,0.29787234,1079.297872,0.136363636,3171.681818
2,39,take another driver hostage,immoral,1.4,4.826086957,1.166666667,,,0.353846154,1120.492308,0.769230769,2165.980769,0.405405405,1134.972973,0.476190476,2505.333333,0.1875,1091.375,0.363636364,2484.818182,0.222222222,1064.111111,0.090909091,2374.818182,0.119047619,1046.619048,0.214285714,1753.785714,0.102040816,1105.755102,0,1853.166667
2,40,sneak onto public transportation,immoral,2.4,3.434782609,1.944444444,,,0.650793651,1114.349206,0.80952381,2453.547619,0.692307692,1148.128205,0.64,2757,0.484848485,1089.515152,0.647058824,2588.411765,0.592592593,1062.962963,0.388888889,2335.611111,0.195121951,1082.414634,0.222222222,2092.555556,0.325581395,1029.44186,0.125,2115
2,41,beckon a friend passing by,improbable,3.65,3.217391304,4.882352941,,,0.75,1045.926471,0.897959184,2630.571429,0.763157895,1044.710526,0.891891892,2609.162162,0.764705882,1090.588235,0.789473684,2305.105263,0.652173913,1084,0.727272727,3185.818182,0.729166667,1101.770833,0.75862069,2567.551724,0.878787879,1071.424242,0.771428571,2438.171429
2,42,convince airport to delay flight,improbable,1.55,4.772727273,2.277777778,,,0.473684211,1196.473684,0.301886792,2290.169811,0.5,1134.46875,0.214285714,2670.404762,0.428571429,1155.285714,0.142857143,2247.047619,0.2,1201.7,0.375,2134.958333,0.272727273,1218.818182,0.208333333,2314.791667,0.225806452,1161.677419,0.03125,2040.40625
2,43,get a stranger to drive him,improbable,3,3.304347826,4.666666667,,,0.942028986,995.3043478,0.916666667,2143.25,0.842105263,999.7105263,0.882352941,2707.705882,0.894736842,1026,0.583333333,2009,0.782608696,1070.217391,0.785714286,2751.714286,0.5,1108.145833,0.32,2253.16,0.757575758,1038.575758,0.538461538,2146.692308
2,44,arrange for a private plane,improbable,1.8,4.434782609,4.722222222,,,0.594202899,1083.884058,0.666666667,2525.644444,0.5,1068.894737,0.606060606,2296.848485,0.611111111,1139.111111,0.4,2208.866667,0.47826087,1040.391304,0.25,2358.3,0.153846154,1129.211538,0.444444444,2442.611111,0.378378378,1076.540541,0.153846154,2238.307692
2,45,book a flight for next year,irrational,2.052631579,4.363636364,4.25,,,0.618421053,1133.697368,0.604651163,2619.534884,0.5625,1074.645833,0.633333333,2743.533333,0.470588235,1069.294118,0.266666667,3108.4,0.28125,1056,0.411764706,2125.176471,0.261904762,1066.904762,0.222222222,2546.944444,0.191489362,1114.744681,0.277777778,2782.222222
2,46,sell car for ride to airport,irrational,1.6,4.869565217,4.058823529,,,0.5,1166.234375,0.5,2648.545455,0.395833333,1142.416667,0.526315789,2731.210526,0.28125,1101.15625,0.421052632,2642.105263,0.266666667,1121.8,0.105263158,2395.157895,0.2,1071.022222,0,2304,0.136363636,1121.522727,0.2,2412.9
2,47,pay 1000 dollars for a ride,irrational,1.65,4.782608696,4,,,0.605263158,1161.513158,0.634146341,2161.04878,0.62745098,1067.411765,0.884615385,2151.846154,0.484848485,1120.848485,0.454545455,2405.090909,0.3125,1052.96875,0.538461538,3180,0.270833333,1038.395833,0.1875,2156.6875,0.181818182,1042.431818,0.066666667,2168.8
2,48,try to run there in time,irrational,2.25,4,4.705882353,,,0.551282051,1132.576923,0.571428571,2445.040816,0.545454545,1131.854545,0.7,2823.466667,0.484848485,1146.060606,0.583333333,2086.5,0.4,1058.6,0.375,2438.8125,0.5,1123.630435,0.5,2918.111111,0.446808511,1170.191489,0.6,4846.533333
3,49,explain the situation to his boss,possible,4.45,1.782608696,4.944444444,,,0.942222222,993.7244444,0.969230769,2422.353846,0.943661972,985.8380282,0.906976744,2246.372093,0.929411765,1009.482353,1,2266.0625,0.951219512,972.7926829,1,2034.153846,0.917910448,986.7164179,0.941176471,2050.941176,0.906976744,953.7751938,0.904761905,2505.761905
3,50,ask other employees what to do,possible,4.1,2.173913043,4.833333333,,,0.920187793,1058.57277,0.934065934,2371.791209,0.902255639,1041.052632,0.884615385,2239.641026,0.869047619,1032.22619,0.838709677,2235.483871,0.860465116,1006.883721,0.739130435,2294.913043,0.791044776,1091.029851,0.625,2507.21875,0.74796748,1051.479675,0.716666667,2603.366667
3,51,get a payday advance loan,possible,2.7,3.869565217,3.944444444,,,0.809090909,1099.636364,0.836206897,2399.051724,0.748031496,1084.338583,0.807692308,2554.820513,0.602272727,1067.147727,0.627906977,2576.418605,0.56626506,1105.216867,0.612244898,2369.714286,0.407692308,1106.692308,0.442307692,2385.903846,0.3671875,1105.46875,0.293103448,2278.482759
3,52,sell something he owns for money,possible,3.15,3.434782609,4.222222222,,,0.907317073,1110.917073,0.859259259,2506.362963,0.770491803,1133.04918,0.854166667,2516.53125,0.670886076,1123.405063,0.75,2327.211538,0.736842105,1097.342105,0.706896552,3446.672414,0.508333333,1149.116667,0.361111111,3208.708333,0.375,1123.291667,0.457142857,2997.585714
3,53,use money from his own wallet,possible,3.8,2.043478261,4.611111111,,,0.949541284,999.5458716,0.970588235,2114.279412,0.927007299,1007.328467,0.928571429,2252.214286,0.891566265,1014.987952,1,2678.894737,0.901234568,943.8518519,0.935483871,2438.451613,0.73943662,1054.077465,0.568627451,2388.411765,0.6640625,1023.25,0.594594595,3241.243243
3,54,add in money from his daily tips,possible,3.5,2.086956522,4.666666667,,,0.906862745,1185.210784,0.928571429,2408.11039,0.887931034,1155.241379,0.951456311,2417.466019,0.771084337,1150.542169,0.918367347,2361.183673,0.864197531,1163.888889,0.933333333,2899.266667,0.643478261,1173.147826,0.76744186,2497.604651,0.612903226,1158.241935,0.682352941,3253.070588
3,55,borrow money from a friend,possible,3.7,2.652173913,3.944444444,,,0.959641256,924.6726457,0.842105263,2309.421053,0.905109489,926.4817518,0.777777778,2248.416667,0.862068966,934.7126437,0.85,2327.9,0.860465116,939.5930233,0.875,2526.291667,0.621428571,999.1357143,0.404761905,2350.738095,0.648854962,960.6717557,0.548387097,2698.419355
3,56,write a check for $50.75,possible,3.25,3.217391304,4.277777778,,,0.927272727,1029.990909,0.834951456,2453.116505,0.888059701,1026.738806,0.884057971,2765.869565,0.823529412,1027,0.735294118,2283.970588,0.817073171,1055.292683,0.681818182,2412.090909,0.673758865,1065.574468,0.491803279,2769.114754,0.653543307,1035.133858,0.457627119,2843.355932
3,57,turn the cash register invisible,impossible,1,4.947368421,2,,,0.142156863,1110.632353,0.009259259,2022.546296,0.15625,1117.796875,0.037037037,2174.654321,0.153846154,1094.74359,0.057142857,2129.085714,0.1375,1101.85,0.043478261,2124.173913,0.169230769,1136.984615,0.116666667,2090.3,0.075,1105.725,0,2513.666667
3,58,use some monopoly money instead,impossible,1.105263158,4.863636364,1.375,,,0.093023256,1100.702326,0.126436782,2339.896552,0.156716418,1084.649254,0.088235294,2324.102941,0.060240964,1077.433735,0.034482759,2214.344828,0.1,1026.7,0.027777778,2218.472222,0.115942029,1060.963768,0.147058824,2295.647059,0.076335878,1034.465649,0,2816.870968
3,59,take pictures of missing bills,impossible,1.45,4.571428571,2.916666667,,,0.285714286,1160.033333,0.193181818,2602.642045,0.275590551,1158.141732,0.210526316,2986.463158,0.185185185,1128.753086,0.105263158,2378.45614,0.2375,1099.225,0.203703704,2776.092593,0.220588235,1109.205882,0.235294118,2668.852941,0.134453782,1095.277311,0.102564103,2600.692308
3,60,get the money by sneezing a lot,impossible,1.1,4.9,3.5,,,0.082524272,1080.072816,0.00990099,2472.237624,0.113636364,1105.69697,0.028985507,2400.898551,0.098765432,1075.555556,0.125,2277.375,0.051282051,1070.397436,0,2108.813953,0.097014925,1055.947761,0.06,2208.38,0.072580645,1063.637097,0.022222222,2658.177778
3,61,overcharge the next customers,immoral,1.6,4.086956522,1.352941176,,,0.592105263,1080.592105,0.696969697,2081.181818,0.583333333,1079,0.692307692,2598.423077,0.352941176,1062.117647,0.545454545,1977.727273,0.322580645,959.0967742,0.25,3035.75,0.183673469,997.3673469,0,1853,0.043478261,992.6086957,0.1,2392.1
3,62,steal money from a coworker,immoral,1.6,4.739130435,1.117647059,,,0.594936709,1016.481013,0.678571429,2154.178571,0.5,1157.076923,0.722222222,2087.5,0.388888889,980.5,0.363636364,2399.727273,0.303030303,996.5454545,0.714285714,2019,0.042553191,903.5319149,0,1964,0.102040816,924.5102041,0,1926
3,63,lie about how much the bakery sold,immoral,2.25,3.739130435,1.277777778,,,0.534246575,1207.39726,0.75,2387.839286,0.66,1203.68,0.702702703,2541.810811,0.266666667,1155.7,0.625,2407.25,0.322580645,1127.516129,0.47826087,2443.130435,0.071428571,993.2380952,0.105263158,2453.421053,0.108695652,1081.630435,0.058823529,2027.588235
3,64,give new customers incorrect change,immoral,1.55,4.391304348,1.222222222,,,0.508196721,1220.672131,0.8,2503.036364,0.395348837,1250.395349,0.666666667,2710.416667,0.266666667,1199.6,0.5,2244.4375,0.233333333,1179.866667,0.416666667,2687.25,0.071428571,1136.714286,0.083333333,1963.291667,0.065217391,1192.76087,0.1875,3093.5625
3,65,find the money on the ground,improbable,2.473684211,4.043478261,4.611111111,,,0.746478873,1091.535211,0.684210526,2078.973684,0.609756098,1105.658537,0.857142857,2195.642857,0.515151515,1050.393939,0.615384615,2153.076923,0.655172414,1065.724138,0.5,2192.9,0.365853659,1092.487805,0.368421053,2961.684211,0.444444444,1158.977778,0.5,2491.65
3,66,discover the money is in his pocket,improbable,3.45,3.826086957,4.277777778,,,0.788732394,1140.464789,0.821428571,2397.339286,0.837837838,1166.27027,0.636363636,2308.909091,0.636363636,1040.454545,0.625,2518.4375,0.655172414,1128.62069,0.555555556,2298.444444,0.444444444,1176.722222,0.407407407,2522.962963,0.56097561,1125.02439,0.4375,2546.71875
3,67,get a child to donate the money,improbable,1.3,4.681818182,2.277777778,,,0.363636364,1161.939394,0.387755102,2589.367347,0.361111111,1145.166667,0.346153846,2704.115385,0.090909091,1112.424242,0.3125,2556.25,0.115384615,1096.346154,0,2194.2,0.090909091,1085.795455,0.176470588,1891.470588,0.063829787,1035.680851,0.277777778,2181.777778
3,68,receive a 100 dollar tip,improbable,3.176470588,4.52173913,4.611111111,,,0.712121212,1059.545455,0.857142857,2314.938776,0.675675676,1111.081081,0.545454545,2935.954545,0.5,1041.823529,0.461538462,2511.461538,0.6,1086.033333,0.222222222,2890.666667,0.342105263,1103.421053,0.391304348,2680.347826,0.285714286,1071.666667,0.64,2408.2
3,69,close the store five hours early,irrational,1.25,4.826086957,1.611111111,,,0.5,1185.053571,0.5,2594.480769,0.297297297,1155.486486,0.333333333,2713.974359,0.411764706,1165.647059,0.25,2323.15,0.166666667,1203.583333,0.285714286,2670.952381,0.38,1160.96,0.2,2039,0.194444444,1157.722222,0.095238095,1927.428571
3,70,pay with his retirement fund,irrational,2,4.260869565,4.0625,,,0.676470588,1159.264706,0.565217391,2491.869565,0.702702703,1092.351351,0.555555556,2501.222222,0.526315789,1191.315789,0.458333333,2283.125,0.434782609,1115.304348,0.352941176,2654.647059,0.3125,1080,0.25,2447.125,0.388888889,1161.277778,0.318181818,2289.090909
3,71,try to invent new pastries,irrational,1.666666667,4.363636364,4.384615385,,,0.262295082,1132.622951,0.490566038,2408.566038,0.365853659,1146.146341,0.454545455,2410.242424,0.111111111,1178.222222,0.421052632,2249.210526,0.130434783,1144.869565,0.125,2245.583333,0.142857143,1131.346939,0.083333333,2248.958333,0.105263158,1114.263158,0.115384615,2820.5
3,72,discount food to encourage tipping,irrational,1.6,4.391304348,1.823529412,,,0.5,1249.5,0.588235294,3922.632353,0.379310345,1232.344828,0.395833333,3290.354167,0.066666667,1166.933333,0.454545455,3098.30303,0.421052632,1158.368421,0.35483871,3177.225806,0.205882353,1195.647059,0.125,2944.15625,0.166666667,1142.208333,0.052631579,2491.394737
4,73,wait to go to the gym tomorrow,possible,4.05,2.347826087,4.666666667,,,0.898617512,1070.9447,0.918181818,2328.918182,0.8515625,1033.6875,0.810810811,3502.027027,0.793103448,1040.045977,0.837837838,3083.108108,0.86746988,1049.084337,0.840909091,2630.545455,0.777777778,1081.481481,0.584615385,2297.892308,0.844262295,1086.098361,0.656716418,2395.462687
4,74,go for a run outside instead,possible,4.7,2.47826087,4.944444444,,,0.91943128,1035.919431,0.935064935,2286.012987,0.88028169,1060.070423,0.966101695,2262.067797,0.814814815,1047.493827,0.903225806,2452.548387,0.916666667,1028.595238,1,2198.794872,0.828125,1054.242188,0.857142857,2126.285714,0.825396825,1068.912698,0.909090909,2300.109091
4,75,decide to lift weights at home,possible,4.7,2.782608696,5,,,0.845070423,1137.455399,0.928571429,2298.321429,0.870229008,1129.076336,0.933333333,2749.186667,0.721518987,1128.202532,0.840909091,2792.159091,0.743589744,1111.282051,0.829787234,2062.851064,0.753731343,1124.044776,0.796875,2531.046875,0.629032258,1130.741935,0.909090909,2556.5
4,76,eat lunch instead of working out,possible,3.55,3.217391304,4.722222222,,,0.884615385,1166.942308,0.962686567,2229.343284,0.832,1155.904,0.957446809,2435.776596,0.721518987,1140.012658,0.836363636,2355.381818,0.675324675,1152.441558,0.833333333,2399.833333,0.551724138,1177.258621,0.647727273,2531.647727,0.565217391,1142.973913,0.729166667,2478.729167
4,77,use a friend's guest pass,possible,3.9,2.826086957,4.111111111,,,0.895454545,983.5545455,0.883116883,2691.727273,0.871428571,992.7428571,0.851851852,2537.277778,0.851851852,948.2345679,0.869565217,2379.956522,0.895348837,982.8953488,0.677419355,2585.290323,0.676258993,1070.618705,0.795454545,2371.772727,0.693548387,1041.620968,0.826086957,2392.826087
4,78,pay for a one-day gym pass,possible,4.45,2.173913043,4.833333333,,,0.932735426,1040.430493,0.952380952,2389.178571,0.923664122,1053.656489,0.984615385,2218.938462,0.851851852,1009.938272,0.958333333,2226.875,0.953488372,1007.418605,0.973684211,3071.710526,0.872340426,1091.148936,0.843137255,2157.647059,0.88372093,1053.372093,0.862068966,2136.62069
4,79,be allowed in just this once,possible,3.105263158,3.217391304,4.055555556,,,0.849246231,1120.547739,0.796992481,2306.796992,0.778625954,1141.717557,0.758241758,2576,0.721518987,1077.139241,0.785714286,2610.547619,0.765432099,1096.777778,0.607843137,2595.254902,0.555555556,1145.460317,0.430379747,2457.291139,0.613445378,1107.403361,0.493975904,2337.024096
4,80,renew her gym membership,possible,4.6,1.652173913,4.833333333,,,0.945945946,935.7567568,0.958333333,2216.083333,0.958041958,949.9090909,0.939393939,2285.272727,0.908045977,938.5747126,0.857142857,2544.52381,0.928571429,919.2857143,1,4142.777778,0.925675676,962.9662162,0.772727273,2181.636364,0.984848485,921.1136364,0.958333333,2505.208333
4,81,turn invisible and go in,impossible,1,4.947368421,2.2,,,0.049773756,946.9140271,0.081632653,2410.530612,0.044776119,951.3656716,0.028571429,2376.371429,0.044444444,908.8,0,2152.3,0.057471264,902.7701149,0.0625,2961.5,0.106382979,941.212766,0.111111111,2092.111111,0.053435115,919.6412214,0.043478261,2124.478261
4,82,wish all gyms to be free forever,impossible,1.631578947,3.608695652,4.4,,,0.315217391,1165.722826,0.445054945,2684.252747,0.256410256,1191.461538,0.490909091,2774.618182,0.291139241,1153.78481,0.590163934,2305.852459,0.282051282,1143.089744,0.362318841,2660.333333,0.204724409,1117.401575,0.234567901,2511.111111,0.245614035,1132.131579,0.26744186,2357.244186
4,83,renew her membership by blinking,impossible,1.055555556,4.476190476,4,,,0.348258706,1158.333333,0.033898305,2060.254237,0.5,1133.880952,0.047058824,2132.223529,0.353658537,1151.170732,0.095238095,2118.619048,0.444444444,1121.222222,0.041666667,2503.541667,0.419847328,1116.694656,0.111111111,2093.84127,0.46031746,1114.706349,0,2048.405797
4,84,turn her hat into a gym pass,impossible,1,4.65,3,,,0.095238095,1109.481481,0.050724638,2563.362319,0.091666667,1149.683333,0.012195122,2242.670732,0.0625,1081,0.078947368,2305.473684,0.153846154,1098.358974,0.022727273,2554.840909,0.090163934,1062.565574,0.095238095,2263.015873,0.057377049,1092.97541,0.019230769,2318.346154
4,85,take someone else's gym card,immoral,1.95,4.304347826,1.388888889,,,0.75,1053.671875,0.666666667,2432.472222,0.675675676,1082.297297,0.407407407,1980.37037,0.705882353,1085,0.384615385,2203,0.363636364,1126.045455,0.307692308,2475.307692,0.230769231,1073.442308,0.181818182,2220.727273,0.285714286,1079.857143,0.176470588,2418.823529
4,86,claim she left her wallet inside,immoral,2.8,3.636363636,1.944444444,,,0.85483871,1171.193548,0.779661017,2300.322034,0.722222222,1218.833333,0.555555556,2707.416667,0.692307692,1180.769231,0.541666667,2708.583333,0.636363636,1137.363636,0.518518519,2604.666667,0.347826087,1182.043478,0.192307692,2398.961538,0.28125,1249.1875,0.137931034,2706.37931
4,87,sneak past the gym attendant,immoral,2.65,3.913043478,1.666666667,,,0.712121212,1060.151515,0.705882353,2422.117647,0.7,1047.1,0.631578947,2185.368421,0.571428571,1046.380952,0.583333333,2294,0.565217391,1138.086957,0.411764706,2619.235294,0.16,1073.18,0.307692308,2130.615385,0.212121212,1129.393939,0,1861.125
4,88,go in the back door without paying,immoral,2.4,4.045454545,1.444444444,,,0.754385965,1231.701754,0.725490196,2573.019608,0.702702703,1224.540541,0.6,2591.525,0.5,1246.944444,0.695652174,2452.043478,0.545454545,1198.318182,0.366666667,2510.733333,0.214285714,1185.357143,0.137931034,2603.931034,0.322580645,1261.870968,0.074074074,2262.259259
4,89,learn the gym stopped checking IDs,improbable,2.947368421,4.434782609,4.294117647,,,0.509433962,1346.641509,0.746478873,2686.507042,0.5,1287.75,0.666666667,2730.428571,0.428571429,1265.107143,0.565217391,2567.521739,0.333333333,1199.583333,0.4,2948.52,0.307692308,1181.666667,0.216216216,3468.216216,0.157894737,1203.894737,0.285714286,3151.107143
4,90,receive a free lifetime membership,improbable,2.222222222,4.826086957,4.529411765,,,0.608108108,1116.067568,0.479166667,2426.8125,0.54,1185.54,0.5,2660.8125,0.34375,1169.75,0.153846154,2838.692308,0.433333333,1048.1,0.214285714,2396.428571,0.543478261,1106.195652,0.423076923,2451.692308,0.510204082,1147.918367,0.384615385,2947.538462
4,91,find a one-day pass in purse,improbable,3.736842105,4.045454545,4.611111111,,,0.8,1146.266667,0.7,2372.14,0.795918367,1182.346939,0.771428571,2868.428571,0.65625,1115.21875,0.666666667,2319,0.766666667,1127.333333,0.636363636,2397.272727,0.581395349,1148.255814,0.741935484,2506.967742,0.681818182,1127.863636,0.84,2425.08
4,92,discover the gym is free today,improbable,3.526315789,4.565217391,4.777777778,,,0.710526316,1168.723684,0.704545455,2182.909091,0.568627451,1157.843137,0.735294118,2914.205882,0.515151515,1156.393939,0.555555556,2161.277778,0.689655172,1173.62069,0.3,2704.4,0.444444444,1123.361111,0.533333333,2478.8,0.571428571,1193.190476,0.48,2411.96
4,93,decide to never exercise again,irrational,1.5,4.782608696,3.666666667,,,0.657142857,1181.742857,0.88372093,2542.162791,0.571428571,1176.942857,0.791666667,2240.416667,0.387096774,1085.258065,0.461538462,1958.923077,0.416666667,1116.625,0.214285714,2096.642857,0.15,1122.4,0.111111111,1903.444444,0.265306122,1073.469388,0.052631579,1892.421053
4,94,try again in three minutes,irrational,1.7,4.523809524,3.5,,,0.716666667,1104.016667,0.534883721,2453.27907,0.567567568,1118.810811,0.181818182,3063.090909,0.379310345,1136,0.333333333,2141.333333,0.615384615,1106.307692,0.2,2763.1,0.263157895,1111.263158,0.266666667,2405.4,0.302325581,1002.976744,0.1,2026.05
4,95,complain in a foreign language,irrational,1.45,4.590909091,3.235294118,,,0.382352941,1143.397059,0.723404255,2345.404255,0.394736842,1089.078947,0.48,2462,0.21875,1093.15625,0.384615385,2105.384615,0.172413793,1061.413793,0,2012.857143,0.022222222,1011.533333,0.090909091,2035.454545,0.081632653,1016.204082,0,1925.75
4,96,run back and forth across lobby,irrational,1.65,4.782608696,3.8125,,,0.6875,1223.890625,0.80952381,2418.904762,0.647058824,1237.647059,0.580645161,2889.967742,0.285714286,1099.142857,0.375,2375.916667,0.115384615,1223.538462,0.176470588,2171.411765,0.128205128,1235.769231,0.208333333,2079,0.212765957,1135.319149,0.125,2244.96875
5,97,run home to get her homework,possible,3.5,2.636363636,4.5,,,0.861111111,1049.587963,0.803921569,2302.647059,0.882352941,1075.830882,0.774193548,2498.758065,0.847058824,1130.635294,0.692307692,2946.282051,0.839506173,1058.283951,0.813953488,2026.697674,0.759124088,1091.912409,0.692307692,2607.553846,0.829457364,1071.511628,0.62745098,2789.058824
5,98,bring in her homework tomorrow,possible,4.1,1.826086957,4.611111111,,,0.940092166,1035.9447,0.957446809,2277.276596,0.889705882,993.1617647,0.943661972,2503.605634,0.879518072,1040.819277,0.9,2366.666667,0.962025316,1035.708861,0.971428571,2249.6,0.871428571,1068.321429,0.872727273,2065.563636,0.9,1026.569231,0.980392157,2547.019608
5,99,ask for an extra-credit assignment,possible,4.1,2.565217391,4.888888889,,,0.897674419,1073.637209,0.913461538,2173.5,0.887218045,1060.556391,0.902777778,2904.222222,0.895348837,1058.383721,0.833333333,2522.133333,0.848101266,1051.556962,0.882352941,2278.862745,0.757575758,1092.833333,0.765625,2426.046875,0.751937984,1053.744186,0.820895522,2280.402985
5,100,ask her mom what she should do,possible,4.1,2.391304348,4.944444444,,,0.936073059,1064.593607,0.866666667,2506.047619,0.8828125,1029.601563,0.881578947,2396.447368,0.821428571,1063.702381,0.783783784,2003.054054,0.857142857,1006.178571,0.659090909,2603.818182,0.791044776,1061.402985,0.791044776,2413.38806,0.834645669,1042.590551,0.639344262,2647.770492
5,101,explain what happened to her teacher,possible,4.75,1.434782609,4.944444444,,,0.931506849,986.9269406,0.953125,2370.09375,0.969465649,988.0076336,0.955555556,2636.622222,0.886363636,1006.215909,1,2360.538462,0.928571429,963.047619,0.916666667,2964.583333,0.887323944,996.4225352,0.864864865,2141.378378,0.921875,993.515625,1,3426.542857
5,102,quickly redo the homework assignment,possible,3.65,2.565217391,4.666666667,,,0.877934272,1083.676056,0.85106383,2339.340426,0.901515152,1111,0.865671642,2196.895522,0.802469136,1076.975309,0.939393939,2505.393939,0.819277108,1093.783133,0.842105263,2332.315789,0.841726619,1086.942446,0.666666667,2439.652174,0.832,1103.776,0.76119403,2423.089552
5,103,ask her mom to bring the homework,possible,4.55,2,5,,,0.96713615,1017.042254,0.971014493,2044.057971,0.934306569,1015.839416,0.954545455,2219.340909,0.904761905,1015.607143,0.909090909,2567.772727,0.951807229,984.4939759,0.965517241,2154.724138,0.88028169,1002.978873,0.888888889,2074.194444,0.891472868,988.1162791,0.914285714,2726.257143
5,104,have her parents call the teacher,possible,3.8,2.913043478,4.333333333,,,0.941747573,1088.252427,0.92173913,2217.147826,0.959016393,1090.565574,0.878378378,2289.378378,0.865853659,1114.134146,0.860465116,2703.651163,0.914634146,1083.780488,0.865384615,2425.519231,0.801526718,1128.740458,0.76056338,2461.380282,0.824,1096.752,0.75,2257.191176
5,105,have her homework teleported,impossible,1,4.9,4.25,,,0.169811321,1104.764151,0.042857143,2039.771429,0.161764706,1114.264706,0.01754386,1937.824561,0.148148148,1097.148148,0,1884.47619,0.075949367,1100.797468,0.033333333,2049.3,0.188811189,1110.237762,0.170731707,1974.292683,0.112,1072.952,0.088888889,2496.266667
5,106,remind herself yesterday evening,impossible,1.722222222,4.15,4.2,,,0.480662983,1201.359116,0.155440415,2577.393782,0.371428571,1218.685714,0.140625,2699.90625,0.338028169,1151.802817,0.209677419,2742.225806,0.305555556,1210.125,0.162162162,3650.513514,0.41025641,1166.162393,0.244680851,2707.553191,0.347457627,1180.372881,0.18627451,2489.813725
5,107,turn in several socks instead,impossible,1.1,4.904761905,2.307692308,,,0.123762376,1143.074257,0.206349206,2504.079365,0.091603053,1123.557252,0.130434783,2353.028986,0.153846154,1105.769231,0.128205128,2356.717949,0.135802469,1080.975309,0,2353.714286,0.119402985,1070.970149,0.102564103,2112.794872,0.032,1047.68,0.065217391,2223.434783
5,108,erase the teacher's memory,impossible,1.052631579,4.9,1.25,,,0.076923077,1039.633484,0.01754386,1937.052632,0.051470588,1041.558824,0.028571429,2197.771429,0.090909091,1016.784091,0,1829.692308,0.05952381,1001.738095,0.0625,1980.8125,0.118055556,1012.479167,0.172413793,2083.137931,0.062015504,973.1860465,0.041666667,2024.291667
5,109,quickly copy someone's homework,immoral,2.3,3.173913043,1.722222222,,,0.808219178,1082.123288,0.777777778,2842.416667,0.761904762,1094.238095,0.75,2676.55,0.696969697,1048.060606,0.533333333,2439.933333,0.653846154,1140.961538,0.692307692,2426.461538,0.238095238,1063,0.384615385,1989.615385,0.217391304,1074.73913,0.238095238,2191.809524
5,110,put her name on a friend's homework,immoral,1.894736842,4.260869565,1.222222222,,,0.671875,1164.21875,0.787878788,2263.984848,0.666666667,1094.666667,0.625,2533,0.413793103,1060.310345,0.411764706,2945.058824,0.5,1089,0.125,2277.6875,0.119047619,1100.97619,0.125,2740.1875,0.1875,1116.0625,0.166666667,3266.958333
5,111,forge an excuse note,immoral,2.55,3.652173913,1.888888889,,,0.734375,1138.015625,0.877192982,2156.561404,0.648648649,1174.864865,0.962962963,2779.296296,0.516129032,1109.580645,0.52173913,2441.826087,0.481481481,1192.444444,0.4375,2542.25,0.195121951,1109.658537,0.25,2103.4375,0.260869565,1122.434783,0.129032258,2461.16129
5,112,lie about being sick to go home,immoral,2.95,3.217391304,1.833333333,,,0.692307692,1135.153846,0.818181818,2477.163636,0.666666667,1168.615385,0.9,2597.8,0.470588235,1123.617647,0.666666667,2604.555556,0.347826087,1068,0.588235294,6524.411765,0.219512195,1053.804878,0.277777778,3315.166667,0.166666667,1027.645833,0.235294118,2367.352941
5,113,discover her teacher is absent,improbable,3.222222222,4.130434783,4.777777778,,,0.5625,1175.609375,0.844444444,2166.222222,0.444444444,1102.361111,0.825,2419.625,0.3125,1147.1875,0.636363636,1982.727273,0.473684211,1125.947368,0.615384615,2469.653846,0.255319149,1166.978723,0.285714286,2477.809524,0.129032258,1098.516129,0.2,2756.771429
5,114,learn school is canceled today,improbable,3,4.434782609,4.9375,,,0.540983607,1199.196721,0.698113208,2653.754717,0.41025641,1140.282051,0.638888889,2857.361111,0.4,1126.866667,0.466666667,2165.4,0.5,1147.909091,0.375,2747.25,0.234042553,1164.06383,0.318181818,2445.454545,0.1875,1087.15625,0.086956522,2285.043478
5,115,remember she has an extra copy,improbable,3.35,4.304347826,4.888888889,,,0.777777778,1151.984127,0.75,2418.115385,0.771428571,1135.314286,0.833333333,2514.222222,0.6,1095.266667,0.7,2689.65,0.636363636,1088.5,0.653846154,2503.153846,0.674418605,1157.465116,0.583333333,2618.666667,0.666666667,1061.444444,0.62962963,2777.518519
5,116,be given an A by mistake,improbable,2.166666667,4.652173913,3.294117647,,,0.580645161,1207.209677,0.745454545,2660.963636,0.457142857,1148.942857,0.47826087,2421.76087,0.466666667,1072.133333,0.380952381,2169.238095,0.217391304,1150.304348,0.380952381,2603.952381,0.208333333,1117.916667,0.166666667,2162.166667,0.205882353,1130.117647,0.074074074,2197.555556
5,117,ask her mom to FedEx the homework,irrational,1.6,4.772727273,4.071428571,,,0.373333333,1178.64,0.404255319,2222.93617,0.31372549,1179.392157,0.382352941,2565.588235,0.1875,1168.375,0.214285714,2483.714286,0.15625,1095.46875,0.090909091,3285.181818,0.288888889,1070.555556,0.2,2020.066667,0.19047619,1119.52381,0.1875,2262.5625
5,118,look under the lunchroom tables,irrational,1.55,4.173913043,4.545454545,,,0.416666667,1158.319444,0.617021277,2446.893617,0.265306122,1131.55102,0.392857143,3023.071429,0.28125,1060.84375,0.2,2270.2,0.137931034,1082.206897,0.083333333,2568.416667,0.085106383,1064.021277,0.125,2702,0.133333333,1084.733333,0,2409.941176
5,119,turn in a completely blank page,irrational,1.4,4.590909091,2.642857143,,,0.338461538,1151.338462,0.617021277,2423.446809,0.37254902,1111.647059,0.555555556,3072.259259,0.181818182,1136.69697,0.066666667,3109.266667,0.322580645,1130.967742,0.153846154,2095.153846,0.088888889,1044.511111,0,1841.5,0.044444444,1075.822222,0.142857143,2966.428571
5,120,turn in last week's homework again,irrational,1.4,4.333333333,2.1875,,,0.463768116,1189.550725,0.483333333,2254.383333,0.346938776,1176.897959,0.342857143,2687.542857,0.375,1140.75,0.35,2367.35,0.266666667,1158.9,0.176470588,2201.705882,0.333333333,1051.644444,0.157894737,2221.736842,0.195121951,1125.365854,0.095238095,2236.333333
6,121,stay put and wait for help,possible,4,2.47826087,4.888888889,,,0.940639269,1039.876712,0.929411765,2161.6,0.911764706,1065.889706,0.96875,2200.78125,0.823529412,1053.941176,0.939393939,2269.333333,0.9375,1053.625,0.934782609,2333.369565,0.885496183,1074.305344,0.765625,2387.328125,0.84,1093.808,0.739130435,2678.391304
6,122,follow a river out of the wilderness,possible,4.05,2.565217391,4.777777778,,,0.886699507,1107.231527,0.933333333,2418.148148,0.876923077,1136.576923,0.865168539,2492.865169,0.902439024,1093.341463,0.959183673,2439.367347,0.855263158,1068.092105,0.907407407,2783.166667,0.798449612,1156.286822,0.689655172,2757.448276,0.844262295,1135.221311,0.8125,2765.8375
6,123,alert rescuers with emergency flares,possible,4.5,1.956521739,4.666666667,,,0.946078431,1135.186275,0.935483871,2221.524194,0.921259843,1126.456693,0.974025974,2250.233766,0.888888889,1101.580247,0.944444444,2026.722222,0.959459459,1079.77027,0.960784314,2095.215686,0.867647059,1152.889706,0.898550725,2040.246377,0.941666667,1120.6,0.956521739,2015.913043
6,124,find a river for fresh water and fish,possible,4.5,2.217391304,4.777777778,,,0.938461538,1096.712821,0.965277778,2305.826389,0.9296875,1090.421875,0.975,2514.225,0.860759494,1091.481013,1,2449.357143,0.91025641,1076.910256,0.948275862,2604.189655,0.875,1110.070313,0.921052632,3019.5,0.913043478,1131.704348,0.965116279,3380.627907
6,125,get more food by hunting and fishing,possible,4.6,2.090909091,4.722222222,,,0.923444976,1103.645933,0.962264151,2346.330189,0.959349593,1098.869919,0.966101695,2227.033898,0.902439024,1109.52439,0.970588235,2229.264706,0.902439024,1098.841463,0.875,2118.708333,0.895522388,1102.567164,0.920634921,2991,0.868852459,1113.336066,0.927536232,2825.782609
6,126,build a large fire to alert rescuers,possible,4.4,2.391304348,4.611111111,,,0.940298507,1135.368159,0.938461538,2364.084615,0.886363636,1118.628788,0.9875,2233.975,0.841463415,1108.792683,0.95,2168.575,0.935064935,1103.675325,0.962962963,2209.648148,0.854961832,1091.312977,0.76,2402.773333,0.848739496,1123.739496,0.920634921,2616.47619
6,127,create a shelter to stay warm,possible,4.45,1.826086957,4.777777778,,,0.944186047,1027.651163,0.957142857,2104.828571,0.936170213,1014.964539,0.981818182,2202.418182,0.931034483,1052.241379,1,2109.5,0.962025316,968.5316456,0.958333333,2102.75,0.903703704,988.0222222,0.894736842,2276.842105,0.955223881,1009.776119,1,1992.432432
6,128,be found by the rescue crew,possible,4.4,2.434782609,4.882352941,,,0.903669725,989.6788991,0.950617284,2215.37037,0.926470588,990.5220588,0.918918919,2103.351351,0.909090909,1014.295455,0.931034483,2016.586207,0.963414634,1006.292683,0.965517241,2212.275862,0.906976744,1052.906977,0.901960784,2552.803922,0.932773109,1072.142857,0.981818182,2293.890909
6,129,use his mind to keep everyone warm,impossible,1.368421053,4.666666667,3.571428571,,,0.31840796,1166.666667,0.067567568,2296.189189,0.285714286,1203.411765,0.077777778,2885.877778,0.228915663,1126.301205,0.038461538,2123.923077,0.386666667,1185.173333,0.092307692,2443.630769,0.403225806,1147.516129,0.109589041,2657.027397,0.267857143,1164.928571,0.120481928,2453.963855
6,130,make new jackets from pine trees,impossible,1.35,4.409090909,4.846153846,,,0.283236994,1202.768786,0.156565657,2942.055556,0.321428571,1238.401786,0.205128205,2905.401709,0.25,1195.578125,0.136986301,2488.931507,0.197183099,1210.28169,0.152777778,2517.347222,0.308333333,1220.033333,0.204545455,2600.477273,0.266666667,1200.228571,0.148148148,2662.194444
6,131,alert airplanes overhead  by yelling,impossible,1.6,4,4.8,,,0.608465608,1178.047619,0.301675978,2520.782123,0.588235294,1161.302521,0.245283019,2812.509434,0.513888889,1144.194444,0.322033898,2359.050847,0.653333333,1168.56,0.333333333,2613.063492,0.569105691,1164.878049,0.284090909,2407.159091,0.661157025,1158.545455,0.265957447,2333.308511
6,132,grind up rocks for food and water,impossible,1.2,4.842105263,4,,,0.242424242,1157.929293,0.12195122,2624.743902,0.247863248,1147.102564,0.028301887,2341.462264,0.164383562,1137.273973,0.098360656,2300.147541,0.282051282,1139,0.06557377,2593.491803,0.18852459,1156.467213,0.128205128,2282.858974,0.190082645,1162.933884,0.044444444,2353.722222
6,133,secretly take his friends' food,immoral,2.2,3.826086957,1.333333333,,,0.743243243,1162.162162,0.789473684,2019.526316,0.592592593,1160.981481,0.733333333,2328.7,0.566666667,1120.966667,0.7,2092,0.451612903,1098.580645,0.368421053,2170.263158,0.166666667,1046.928571,0.111111111,2180.666667,0.155555556,1064.977778,0.142857143,2111
6,134,leave the weakest people behind,immoral,2.4,4.391304348,2,,,0.675675676,1194.581081,0.88372093,2272.302326,0.519230769,1192.653846,0.78125,2355.375,0.545454545,1118,0.571428571,2335.571429,0.225806452,1122.516129,0.444444444,2177.666667,0.113636364,1120.613636,0.055555556,2662.666667,0.023809524,1129.833333,0.2,2203.8
6,135,rob other hikers they meet,immoral,1.8,4.666666667,1.277777778,,,0.540540541,1133.148649,0.853658537,2405.902439,0.470588235,1103.72549,0.733333333,2827.233333,0.352941176,1071.882353,0.4,2915.066667,0.264705882,1094.441176,0.571428571,2483.285714,0.106382979,1009.340426,0.055555556,1900.055556,0.066666667,1024.844444,0.142857143,2191.785714
6,136,kill his friend's pet dog for food,immoral,1.9,4.608695652,1.705882353,,,0.444444444,1115.486111,0.745098039,2395.54902,0.545454545,1139.836364,0.617647059,3168.764706,0.242424242,1030.151515,0.529411765,2638.235294,0.129032258,975.2258065,0.4375,2229.125,0.066666667,970.6888889,0.214285714,2315.571429,0.063829787,1002.276596,0.142857143,8205.642857
6,137,find thermal vent to keep warm,improbable,2.65,4.52173913,4.666666667,,,0.630769231,1202.092308,0.582089552,2670.208955,0.666666667,1228.636364,0.647058824,2735.294118,0.551724138,1171.689655,0.545454545,2840.590909,0.76,1147.8,0.545454545,2564.863636,0.757575758,1155.575758,0.464285714,2419.964286,0.681818182,1182.545455,0.615384615,2741.717949
6,138,find stream showing the path out,improbable,3.85,2.695652174,4.944444444,,,0.887096774,1152.645161,0.931034483,2948.172414,0.916666667,1178.138889,0.838709677,2956.129032,0.78125,1230.8125,0.904761905,3433.238095,0.846153846,1164.807692,0.941176471,2690.294118,0.823529412,1130.205882,0.580645161,2947.967742,0.902439024,1133.02439,0.813953488,2763.581395
6,139,meet a former expedition guide,improbable,3.210526316,4.52173913,4.647058824,,,0.651515152,1176.015152,0.666666667,2573.126984,0.689655172,1206.758621,0.692307692,2822.5,0.545454545,1171.393939,0.590909091,2205.954545,0.56,1111.68,0.25,2463.0625,0.416666667,1187.027778,0.333333333,2464.592593,0.6,1156.575,0.441860465,2989.534884
6,140,find an abandoned bear cave,improbable,2.45,3.913043478,4.75,,,0.634920635,1180,0.898305085,2390.966102,0.527777778,1196.611111,0.846153846,2863.538462,0.535714286,1167.964286,0.727272727,2524.227273,0.518518519,1182.148148,0.55,2356.85,0.35,1169.425,0.277777778,2230.333333,0.380952381,1167.785714,0.421052632,2619.973684
6,141,go hunting for water buffalo,irrational,1.9,4.227272727,4.266666667,,,0.59375,1111.859375,0.48,2663.18,0.684210526,1043.736842,0.484848485,2963.727273,0.476190476,1124.238095,0.45,2781.7,0.523809524,1069.142857,0.291666667,3716.25,0.37254902,1097.862745,0.375,2629.958333,0.351351351,1110.864865,0.269230769,2536.230769
6,142,eat random berries and leaves,irrational,2.75,2.608695652,4.222222222,,,0.787878788,1062.227273,0.916666667,2537.305556,0.863636364,1081.636364,0.821428571,2193.678571,0.875,1088.1875,0.538461538,2229.384615,0.681818182,1056.818182,0.461538462,2913.846154,0.469387755,1097.020408,0.052631579,2123.526316,0.575757576,1143.878788,0.307692308,2406.038462
6,143,each venture off independently,irrational,1.8,4.304347826,3.5,,,0.547169811,1166.830189,0.910714286,2604.928571,0.658536585,1060.341463,0.666666667,2487.595238,0.611111111,1076.777778,0.538461538,2511.923077,0.5,1080.227273,0.392857143,2697.142857,0.166666667,1069.166667,0.047619048,2135.52381,0.257142857,1077.885714,0.090909091,2510.681818
6,144,eat all their food immediately,irrational,1.4,4.565217391,2.222222222,,,0.8125,1136.4375,0.847826087,2146.456522,0.657894737,1060.815789,0.625,2235.25,0.6,1124.65,0.5,2192.25,0.619047619,1112.904762,0.315789474,1934.473684,0.226415094,1104.90566,0.133333333,2391.066667,0.235294118,1080.705882,0.0625,1941.5625
7,177, steal your favorite sculpture.,immoral,,1.133333333,1,1.206896552,4.4,0.407407407,1051.691358,0.465116279,3461.767442,0.295454545,1082.931818,0.210526316,2299.473684,0.113636364,976.0227273,0.363636364,2056.090909,0.086956522,980.9565217,0.333333333,2002.444444,0,901.2608696,0,2688.25,0.045454545,888.9772727,0.25,2281.5
7,178, transform into a very large seal.,impossible,,1.357142857,1.5,1.6,3.333333333,0.071428571,1047.428571,0.024390244,2224.487805,0.076923077,1079.102564,0.142857143,2345.619048,0,1054.111111,0,2803.888889,0.02173913,984.5869565,0.111111111,2143.111111,0.021276596,1010.893617,0,2177.083333,0.025641026,969.0512821,0,2135.111111
7,179, teleport back to your apartment.,impossible,,1.379310345,3,2.25,2,0.034883721,982.9418605,0.115384615,1977.038462,0,985.4047619,0,2463.909091,0.066666667,912.9555556,0,2764.333333,0,892.7777778,0,1794.75,0,888.0638298,0,2609.5,0.023255814,915.1162791,0,3152
7,180, break the arm of a security guard.,immoral,,1.166666667,1,1.142857143,4.612903226,0.436781609,1056.356322,0.6,2525.02,0.372093023,1065.023256,0.473684211,2623.157895,0.170212766,993.7021277,0.375,2302.125,0.093023256,930.2325581,0,2056.857143,0.02173913,916.5434783,0,2640.444444,0.024390244,889.4390244,0,3001.333333
7,181, throw an exhibit out the window.,immoral,,1.24137931,1.047619048,1.111111111,4.419354839,0.3875,1071.4375,0.428571429,2742.380952,0.275,1081.975,0.294117647,2506.117647,0.166666667,1039.857143,0.285714286,2078.142857,0.130434783,994.0217391,0.153846154,2500.076923,0,1007.133333,0,2303,0.046511628,951.744186,0,1876.777778
7,182, discuss an exhibit with a friend.,ordinary,,3.7,4.545454545,4.620689655,1.677419355,0.872093023,1030.267442,0.944444444,2168.666667,0.80952381,1037.595238,0.882352941,2442,0.891304348,1010.76087,1,2046.666667,0.913043478,1009.73913,1,1873.928571,0.745098039,1052.058824,0.9,3902.5,0.928571429,1023.785714,0.933333333,1858.4
7,183, admire your favorite painting.,ordinary,,4.266666667,4.818181818,4.586206897,1.766666667,0.943820225,947.3146067,0.964285714,3439.464286,0.9,980.875,1,1986.083333,0.979591837,998.244898,1,2787.888889,0.904761905,962.952381,1,1860.833333,0.87755102,969.5510204,0.916666667,2109.916667,0.931818182,990.5,0.857142857,2035.857143
7,184, read the placard by an exhibit.,ordinary,,4.068965517,4.727272727,4.586206897,1.966666667,0.902439024,1143.402439,0.964285714,2358.375,0.875,1090.225,0.909090909,2250.409091,0.863636364,1088.159091,1,2494.545455,0.926829268,1122.097561,0.9375,2358.0625,0.731707317,1126.658537,0.888888889,2426.111111,0.731707317,1080.243902,0.9375,2393
7,185, ignore the guard and bring your bag.,flouting,,1.8,1.681818182,1.379310345,4.033333333,0.626666667,1151.12,0.753424658,2667.794521,0.588235294,1148.411765,0.448275862,2355.586207,0.333333333,1095.583333,0.35,2239.95,0.348837209,1078.046512,0.4,2659.72,0.044444444,1098.288889,0.1875,2389.875,0.078947368,1085,0.047619048,2561.238095
7,186, rest on a bench for a moment.,ordinary,,4.166666667,4.681818182,4.517241379,1.689655172,0.939759036,1083.325301,0.955555556,2486.8,0.930232558,1003.674419,0.857142857,2111.071429,0.70212766,1061,1,1902.2,0.813953488,968.9767442,1,2522.25,0.888888889,1043.288889,0.785714286,2450.928571,0.825,989.85,0.8,2634.133333
7,187, stand on a bench for a better view.,flouting,,2.733333333,2.545454545,1.714285714,2.266666667,0.895348837,1112.593023,0.921875,2411.015625,0.717948718,1155.102564,0.777777778,2497.62963,0.733333333,1154.333333,0.55,2538.65,0.625,1063.05,0.529411765,2169.882353,0.375,1109.729167,0.130434783,2506.73913,0.184210526,1063.026316,0.2,2344.15
7,188, secretly adjust a painting.,flouting,,2.3,2,2.068965517,3.433333333,0.657894737,1105.842105,0.75,2345.632353,0.692307692,1112.615385,0.423076923,2645.115385,0.391304348,1182.369565,0.347826087,2076.478261,0.2,1027.525,0.117647059,2254.529412,0.127659574,1144.021277,0.058823529,2395.882353,0.195121951,1034.902439,0,1843.4
7,189, have a conversation with a painting.,impossible,,1.6,3.6,1.965517241,3,0.725,1054.1375,0.436363636,2491.963636,0.825,1031.75,0.689655172,2421.137931,0.630434783,1137.23913,0.421052632,2355.263158,0.575,1022.55,0.315789474,2151.947368,0.622222222,1079.155556,0.105263158,2914.947368,0.538461538,1049.025641,0.125,2221.083333
7,190, levitate above the other patrons.,impossible,,1.357142857,2.833333333,1.833333333,2.941176471,0.058139535,1003.77907,0.029411765,2353.676471,0.047619048,1058.309524,0,2345.666667,0.041666667,980.7916667,0,2525.909091,0.02173913,949.2608696,0,2285,0.05,908.525,0,2652.909091,0.022727273,1023.522727,0,2675.5
7,191, crabwalk through the main exhibit.,flouting,,1.433333333,2,1.464285714,3.586206897,0.405063291,1092.670886,0.721311475,2346.737705,0.409090909,1163.568182,0.5625,3154.375,0.333333333,1075.733333,0.4,2755.866667,0.095238095,1063.595238,0.266666667,2355.4,0,988.9130435,0,3171.090909,0.047619048,965.047619,0.083333333,2947.416667
7,192, rip a painting into small pieces.,immoral,,1.433333333,1,1.214285714,4.366666667,0.506024096,1108.891566,0.566037736,2473.981132,0.295454545,1039.25,0.210526316,2438.052632,0.177777778,1056.466667,0.111111111,2432.333333,0.139534884,1004.651163,0.083333333,2061.5,0,960.2727273,0,2184.714286,0.022727273,946.5681818,0,1747
8,161,  read the minds of fellow diners.,impossible,,1.310344828,2.1,2.555555556,2.944444444,0.176470588,1098.847059,0.153846154,4291.538462,0.102564103,998.5897436,0.105263158,1788.684211,0.022727273,1002.272727,0.111111111,1908.111111,0.105263158,991.8157895,0.125,2320.5625,0.041666667,938.0208333,0.066666667,3513.533333,0.063829787,960.6808511,0,2483.375
8,162,  take a bite of your meal.,ordinary,,4.533333333,4.954545455,4.821428571,1.709677419,0.978021978,975.5274725,0.962962963,3555.259259,0.947368421,905.2631579,0.866666667,2112.2,0.960784314,962.3137255,1,1902.875,0.951219512,900,1,2130,0.918367347,896.8367347,1,2428,0.875,895.5,0.8,2943.4
8,163,  eat one-hundred veggie pizzas.,impossible,,1.344827586,3.133333333,1.869565217,4.037037037,0.346666667,1107.093333,0.149253731,2669.38806,0.4,1059.2,0.096774194,2779.483871,0.2,1104.8,0.058823529,1996,0.157894737,1045.473684,0,2279.318182,0.119047619,941.0714286,0.045454545,2429.727273,0.063829787,1010.468085,0,2172.466667
8,164,  make a salad at the salad bar.,ordinary,,4,4.727272727,4.655172414,1.866666667,0.944444444,1035.222222,0.875,2295.075,0.918918919,975.4054054,0.733333333,2573.866667,0.958333333,980.2708333,0.777777778,1912.888889,0.853658537,999.0243902,0.833333333,2398,0.86,923.48,0.705882353,2510.882353,0.911111111,957.7111111,0.916666667,3094.333333
8,165,  steal plates for your kitchen.,immoral,,1.5,1.318181818,1.24137931,4.290322581,0.561797753,1080.550562,0.607843137,3040.137255,0.485714286,1070.171429,0.260869565,2359.782609,0.276595745,999.0638298,0.285714286,2610.714286,0.15,1011.025,0.066666667,1979.666667,0.02,904.78,0,2548.071429,0.020833333,933.6458333,0,1977.625
8,166,  set fire to the pizza station.,immoral,,1.233333333,1.045454545,1.111111111,4.724137931,0.384615385,1054.505495,0.58490566,2631.188679,0.305555556,974.9722222,0.45,2513.7,0.2,972.4888889,0.625,2341.25,0.1,904.25,0,2358.222222,0.040816327,850.2653061,0.083333333,2140.416667,0,920.1086957,0,3271.2
8,167,  kill a dining hall employee.,immoral,,1.333333333,1,1.185185185,4.612903226,0.303370787,1054.033708,0.5,2281.520833,0.325,1012.95,0.263157895,2193.684211,0.244444444,1004.088889,0.444444444,2413.666667,0,859.1315789,0,3931.2,0.02,840.1,0,2375.666667,0.041666667,882.0208333,0,2202.5
8,168,  walk around the room barefoot.,flouting,,3.7,1.909090909,1.482758621,2.6,0.714285714,1145.095238,0.704918033,2282.672131,0.6,1115.114286,0.37037037,2058.074074,0.391304348,1136.5,0.153846154,2001.769231,0.289473684,1058.921053,0.052631579,1851.315789,0.088888889,1065.733333,0,2579.411765,0.065217391,1017.304348,0.090909091,2256.090909
8,169, wait in line for your food.,ordinary,,4.366666667,5,4.714285714,1.741935484,0.968421053,992.7473684,0.967741935,2909.354839,0.894736842,912.7368421,0.928571429,1993.571429,0.97826087,932.0652174,0.5,1833.25,0.928571429,1014.357143,1,2867.375,0.88,906.22,0.857142857,2620.285714,0.918367347,933.755102,1,3286.5
8,170,  grow another head on your back.,impossible,,1.321428571,1.4,2.142857143,4,0.093023256,1111.872093,0.078947368,2824.131579,0.055555556,1030.777778,0.047619048,2447.190476,0.12244898,1049.244898,0,2040.555556,0,976.4736842,0,1886.642857,0.085106383,982.7659574,0,2709.615385,0.022222222,1030.644444,0,2816.142857
8,171,  sit down at a random family's table.,flouting,,1.733333333,2,1.392857143,3.666666667,0.77027027,1140.418919,0.75,2260.470588,0.631578947,1163.210526,0.6,2988.4,0.511627907,1196.44186,0.2,2036.75,0.358974359,1141.692308,0.142857143,2654.428571,0.23255814,1061.906977,0.111111111,2733.37037,0.204545455,1114.090909,0.0625,2210.8125
8,172,  stab someone with a fork.,immoral,,1.5,1.090909091,1.25,4.419354839,0.455555556,1001.855556,0.555555556,2127.185185,0.35,973.075,0.368421053,2257.157895,0.235294118,949.9411765,0.6,2326.6,0.170731707,958.6585366,0,1907,0,847.72,0.111111111,2510.888889,0.020408163,851.8979592,0,3945.333333
8,173,  sit on the floor to eat your food.,flouting,,2.551724138,2.181818182,1.310344828,3,0.703703704,1139.728395,0.694915254,3418.661017,0.564102564,1046.102564,0.321428571,2313.464286,0.355555556,1065.8,0.357142857,2428.357143,0.282051282,1064.794872,0,2016.7,0.081632653,997.9591837,0.045454545,3695.227273,0.106382979,1008.787234,0,3131.833333
8,174,  climb inside of a bowl of cereal.,impossible,,1.321428571,1.5,1.333333333,3.5,0.213483146,1145.752809,0.020408163,2078.510204,0.157894737,1007.842105,0.130434783,2120.869565,0.020408163,1095.081633,0,2037.1,0,975.3421053,0,1864.866667,0.020408163,941.6530612,0,2390.222222,0.042553191,962.787234,0,2557.416667
8,175,  take an entire serving platter of food.,flouting,,1.666666667,3.136363636,2.24137931,3.516129032,0.785714286,1147.130952,0.888888889,2796.263889,0.75,1151.194444,0.6,3026.571429,0.674418605,1164.27907,0.5,2808.2,0.548387097,1200.419355,0.461538462,2608.346154,0.595238095,1088.02381,0.303030303,3423.363636,0.325581395,1141.511628,0.307692308,2650.346154
8,176,  thank a dining hall employee.,ordinary,,4.066666667,4.909090909,4.724137931,1.333333333,0.898876404,1125.494382,0.97826087,2564.23913,0.882352941,1082.823529,0.842105263,2326.315789,0.833333333,1071.047619,0.916666667,2295.833333,0.902439024,1081.585366,0.928571429,2303.428571,0.85106383,1008.276596,0.909090909,2576.818182,0.826086957,1020.065217,1,2736
9,145,  exit having aged seventeen years,impossible,,1.346153846,2.333333333,1.777777778,3.705882353,0.211267606,1211.971831,0.05,2621.85,0.137931034,1167.37931,0.055555556,3045.888889,0.025,1157.425,0.090909091,2528.045455,0.076923077,1072.538462,0,2206.478261,0.025641026,1121.769231,0,2855.666667,0.025641026,1133.923077,0.035714286,2456.714286
9,146,  take a book without checking it out.,immoral,,1.620689655,1.5,1.392857143,4.290322581,0.811764706,1159.682353,0.754098361,2443.901639,0.617647059,1108,0.428571429,2272.607143,0.510638298,1183.659574,0.588235294,2376.058824,0.380952381,1150.547619,0.111111111,2075.944444,0.139534884,1067.162791,0,4459.409091,0.047619048,1126.833333,0,1936.6875
9,147,  place cookbooks in the kid's section.,flouting,,1.655172414,2.136363636,1.821428571,3.387096774,0.666666667,1168.679012,0.842105263,2560.578947,0.5,1170.764706,0.642857143,2872.928571,0.326086957,1183.065217,0.48,2267.28,0.2,1164.2,0.227272727,2220.454545,0.152173913,1039.5,0.037037037,2483.111111,0.088235294,1075.529412,0,2315.541667
9,148,  leave a book to soak in a toilet.,immoral,,1.166666667,1.181818182,1.285714286,4.290322581,0.5625,1219.6875,0.671232877,2662.452055,0.371428571,1135.771429,0.387096774,2589.451613,0.177777778,1115.666667,0.272727273,2492.818182,0.12195122,1085.926829,0.153846154,2352.769231,0.022727273,1033.75,0,4026,0,1067.512195,0,2008.4375
9,149, ask the librarian for advice.,ordinary,,3.566666667,4.954545455,4.862068966,1.838709677,0.947916667,1026.84375,0.96,2267.96,1,964.5121951,1,1724.5,0.980769231,969.75,0.857142857,1972.142857,0.957446809,969.5744681,1,1872.666667,0.956521739,917.2173913,0.916666667,2981.666667,0.930232558,909.8139535,1,1700
9,150,  read one book's inside cover.,ordinary,,3.866666667,4.727272727,4.607142857,2,0.925531915,1136.042553,0.954545455,2473.80303,0.947368421,1076.105263,0.928571429,2679.107143,0.891304348,1094.391304,0.85,2661.35,0.833333333,1109.142857,1,2278.411765,0.756097561,1143.317073,0.90625,2650.34375,0.897435897,1108.333333,0.965517241,2290.413793
9,151,  check out three different books.,ordinary,,3.366666667,4.818181818,4.551724138,1.935483871,0.908163265,1062.173469,1,2705.410256,0.925,1079.25,1,2226.882353,0.961538462,1032.5,1,2232.7,0.866666667,1007.066667,0.9,1766.2,0.913043478,1050.086957,0.888888889,2226.944444,0.761904762,1081.02381,1,2401.066667
9,152,  drink from the water fountain.,ordinary,,3.827586207,4.772727273,4.586206897,2,0.88172043,998.2043011,0.925925926,2127.555556,0.88372093,1011.72093,0.666666667,2020.4,0.807692308,975.1153846,1,2115.333333,0.717391304,936.3695652,1,2013.625,0.8,1001.422222,0.625,2911.0625,0.756097561,992.9756098,0.8125,2531.75
9,153,  make all the books disappear.,impossible,,1.428571429,1.166666667,1.4,4.304347826,0.186813187,1084.813187,0.128205128,2201.769231,0.2,1067.9,0.071428571,2123.5,0.074074074,1000.074074,0,1737.142857,0.108695652,1016.586957,0,1823,0.085106383,942.4468085,0,2558.214286,0.022727273,1000.909091,0,3982.333333
9,154,  push someone down the stairs.,immoral,,1.233333333,1,1.214285714,4.516129032,0.527472527,1061.56044,0.729166667,2453.541667,0.307692308,1059.538462,0.315789474,2174.684211,0.18,1005.54,0.428571429,1734.857143,0.086956522,977.673913,0.142857143,2058.571429,0.021276596,894.9574468,0,1921,0.023809524,916.6666667,0,2016.285714
9,155,  hide a dead body in the bathroom.,immoral,,1.433333333,1,1.111111111,4.633333333,0.206896552,1135.896552,0.5,2923.64,0.146341463,1080.365854,0.1875,2601.0625,0.06122449,913.4693878,0.4,2771.8,0.044444444,930.9111111,0.4,1977.2,0,883.3125,0,4475.307692,0,935.1190476,0,1906.875
9,156,  scream at the top of your lungs.,flouting,,2.033333333,1.5,1.214285714,3.533333333,0.694736842,1011.389474,0.757575758,2223.121212,0.45,970.725,0.3,2241.15,0.150943396,951,0.428571429,1976,0.065217391,918.7608696,0,2022.333333,0,863.6904762,0,2112.4,0.048780488,857.902439,0,2088.75
9,157,  read every book in the building.,impossible,,1.733333333,4.421052632,3.5,2.034482759,0.528735632,1094.333333,0.3,2373.6,0.512820513,1049.948718,0.25,2684,0.31372549,1069.235294,0.5,2461.916667,0.279069767,1035.093023,0,2283.4,0.260869565,1047.652174,0.157894737,2851.157895,0.317073171,1027.097561,0.470588235,3509.705882
9,158,  melt your least favorite book.,impossible,,1.5,1.15,1.25,3.851851852,0.244186047,1116.127907,0.192982456,2542.210526,0.162162162,1064.378378,0.266666667,2959.633333,0.090909091,1080,0,2743.944444,0.095238095,1060.904762,0.153846154,2361.846154,0.045454545,988.5909091,0.045454545,2246.818182,0.102564103,995.4615385,0,1805.933333
9,159,  play music on a portable speaker.,flouting,,3.566666667,1.714285714,1.285714286,2.133333333,0.744186047,1141.174419,0.707692308,2344.984615,0.526315789,1094.684211,0.36,2503.8,0.294117647,1096.72549,0.2,2343.8,0.30952381,1069.380952,0,2146,0.130434783,1005.173913,0.047619048,3139.714286,0.159090909,1014,0,3044.266667
9,160,  set up an elaborate cooking spread.,flouting,,2.533333333,2.105263158,1.208333333,2.166666667,0.371794872,1194.871795,0.217948718,2632.884615,0.2,1231.428571,0.161290323,2548.322581,0.170212766,1162.87234,0.2,2055,0.095238095,1084.619048,0.071428571,1975.5,0.048780488,1029.365854,0,3693.375,0.048780488,1109.97561,0.058823529,2563.764706
10,193,  shatter one of the plane's windows.,immoral,,1.466666667,1.090909091,1.206896552,4.741935484,0.284090909,1127.488636,0.351851852,2638.314815,0.210526316,1154.921053,0.153846154,2419.692308,0.093023256,1081.55814,0.166666667,2451.777778,0.086956522,1022.978261,0,3003.333333,0.023255814,919.9767442,0,2232,0.046511628,937.255814,0,2907.571429
10,194,  watch a movie you have downloaded.,ordinary,,4.333333333,5,4.310344828,1.806451613,0.880434783,1159.23913,0.941176471,2118.235294,0.853658537,1061.268293,0.956521739,2431.217391,0.886363636,1109.659091,1,2084,0.75,1020.340909,0.9,1699.3,0.743589744,1010.871795,1,2020.611111,0.813953488,1024.27907,0.9,2432.9
10,195,  do a magazine crossword puzzle.,ordinary,,3.266666667,5,4.571428571,1.709677419,0.858585859,1075.343434,0.931034483,2213.241379,0.925,1003.025,1,2311.4,0.844444444,993.4888889,0.916666667,2846.75,0.857142857,954.122449,1,2050.666667,0.857142857,974.9761905,0.933333333,2177.066667,0.88372093,964.0930233,0.9,1937.1
10,196,  force the plane to go backwards.,impossible,,1.2,1,1.538461538,4.24,0.145833333,1126.083333,0.11627907,2305.790698,0.131578947,1006.315789,0.071428571,1955.428571,0,1015.952381,0.142857143,1715.857143,0.041666667,988.2291667,0,1803,0,914.925,0,2420.428571,0.023809524,964.5,0,2022.1
10,197,  stand on top of your seat and shout.,flouting,,1.7,1.545454545,1.137931034,3.612903226,0.686746988,1174.373494,0.62295082,2393.557377,0.459459459,1123.513514,0.433333333,2765.333333,0.256410256,1084.641026,0.5,2531.65,0.108695652,1032.217391,0.142857143,1666.285714,0.075,1004.575,0,2055.454545,0.023255814,1023.72093,0,3271.125
10,198,  steal extra snacks from the cart.,immoral,,1.966666667,1.727272727,1.535714286,4.451612903,0.773195876,1142.608247,0.738095238,2222.809524,0.666666667,1024.611111,0.576923077,3267.230769,0.297297297,1064.216216,0.315789474,3002.315789,0.276595745,1049.702128,0.285714286,2001.714286,0.075,934.225,0.0625,2387.3125,0.073170732,962.3170732,0,2121.166667
10,199,  poison the drink of your seatmate.,immoral,,1.166666667,1,1.172413793,4.612903226,0.28125,1145.208333,0.418181818,3152.490909,0.243902439,1035.707317,0.263157895,2347.368421,0.093023256,945.0465116,0.307692308,2177,0.042553191,938.4042553,0,2294.5,0.025,857.775,0,2321.25,0.023255814,835.2325581,0,1974.444444
10,200,  ask people to give up their first-class seats.,flouting,,1.633333333,1.772727273,1.551724138,3.766666667,0.69047619,1251.666667,0.657142857,2718.914286,0.5625,1197.40625,0.542857143,2949.114286,0.371428571,1177.314286,0.5,2143.588235,0.3,1158.425,0.111111111,2228.111111,0.105263158,1135.315789,0,2449.857143,0.024390244,1184.902439,0,2144.653846
10,201,  stop the engine with your thoughts.,impossible,,1.428571429,1.25,1.866666667,3.631578947,0.120879121,1178.373626,0.023809524,2158.02381,0.095238095,1016.619048,0,2373.818182,0,1029.571429,0.153846154,1797.538462,0.043478261,961.173913,0,1629.166667,0,894.9487179,0,2352.818182,0,901.5348837,0.083333333,3327.666667
10,202,  ask the attendant for some peanuts.,ordinary,,3.466666667,4.818181818,4.517241379,2.129032258,0.93814433,1105.226804,0.96875,2287.40625,0.951219512,1005.146341,0.947368421,2474.210526,0.906976744,1074.465116,1,2165.1,0.9,1057.52,0.9,2194.3,0.853658537,1031.853659,0.944444444,2059.444444,0.928571429,1068.571429,0.909090909,1968.818182
10,203,  take a dance exercise class.,impossible,,2.633333333,3,1.928571429,2.032258065,0.28125,1127.645833,0.078431373,2346.705882,0.2,991.85,0.08,2259.92,0.11627907,1046.837209,0.083333333,2389.25,0.106382979,954.2553191,0,1850.5,0,920.975,0.1,2702.6,0.093023256,898.5813953,0.1,2876.5
10,204,  demand twenty-five bags of peanuts.,flouting,,1.266666667,1.954545455,1.551724138,3.9,0.535714286,1215.190476,0.692307692,2326.030769,0.457142857,1079.685714,0.472222222,2669.638889,0.236842105,1117.315789,0.296296296,2218.037037,0.066666667,1033.111111,0.222222222,1801.555556,0.048780488,1022.902439,0,2752.388889,0.047619048,1013.190476,0,2094.631579
10,205,  start the next chapter of your book.,ordinary,,4.033333333,4.909090909,4.655172414,1.612903226,0.901098901,1177.010989,0.973684211,2702.184211,0.894736842,1048.078947,1,2317.666667,0.923076923,1075.25641,0.894736842,2119.578947,0.87755102,1065.653061,0.75,2390.625,0.775,1047.95,0.909090909,2501.227273,0.833333333,1058.47619,1,2800.866667
10,206,  put your bag in the middle of the aisle.,flouting,,1.620689655,1.590909091,1.464285714,3.866666667,0.822222222,1158.911111,0.8125,2434.375,0.815789474,1140.131579,0.484848485,2447.878788,0.486486486,1175.324324,0.28,2377.88,0.404761905,1147.714286,0.210526316,1920.473684,0.297297297,1134.351351,0.12,2436.56,0.268292683,1106.121951,0.05,2195.05
10,207,  hold the plane's pilot as hostage.,immoral,,1.233333333,1.045454545,1.214285714,4.677419355,0.406593407,1151.747253,0.46031746,2615.888889,0.219512195,1123.439024,0.454545455,2675.227273,0.146341463,1069.585366,0.117647059,2118.058824,0.06122449,987.4285714,0,1898.25,0,971.2380952,0,2489.45,0.047619048,950.4285714,0,2260.357143
10,208,  turn the attendant into a mouse.,impossible,,1.275862069,1,1.666666667,3.842105263,0.260416667,1219.947917,0.063829787,2137.489362,0.125,1108.025,0,2445.85,0.069767442,1120.744186,0,1835.866667,0.14893617,1070.468085,0.1,2338.9,0.025,1073.025,0,2281,0.125,1081.85,0.076923077,2971.307692
11,241,  mentally recite your agenda items.,ordinary,,4,4.590909091,4.448275862,1.931034483,0.797752809,1241.977528,0.960784314,2321.039216,0.707317073,1108.317073,0.923076923,2477.923077,0.756097561,1089.707317,0.857142857,2058.142857,0.658536585,1152.390244,0.80952381,1968.142857,0.684210526,1122.105263,0.875,2272.666667,0.487804878,1148.170732,0.761904762,2182.142857
11,242,  park in the middle of the highway.,immoral,,1.333333333,1.571428571,1.36,4.322580645,0.602272727,1100.102273,0.472727273,2845.472727,0.511111111,1078.822222,0.384615385,2500.576923,0.268292683,999.3414634,0.210526316,2102.052632,0.097560976,1109.804878,0,2006.933333,0.05,1023.45,0,2077.125,0.065217391,1014.26087,0.083333333,2585.666667
11,243,  go on a long scenic walk,flouting,,4.033333333,3.85,2.434782609,1.387096774,0.583333333,1069.989583,0.536585366,2902.170732,0.609756098,995.7804878,0.391304348,2791.913043,0.512195122,1074.341463,0.277777778,2767.666667,0.452380952,1078.952381,0.333333333,2408.066667,0.243243243,1015.864865,0.19047619,2305.52381,0.195121951,983.7317073,0.352941176,2250.176471
11,244,  brainstorm suggestions for the group.,ordinary,,3.966666667,4.818181818,4.714285714,1.64516129,0.895833333,1063.666667,0.935483871,2793.032258,0.822222222,1095.311111,1,2263.478261,0.789473684,1035.868421,0.904761905,1922.095238,0.8,1055.65,1,1699.461538,0.731707317,1003.658537,1,2189.095238,0.847826087,1044.391304,0.9,2963.8
11,245,  read the minds of people close by.,impossible,,1.571428571,1.9,2.142857143,3,0.2,1125.39,0.083333333,2410.166667,0.065217391,1023.5,0,2546.95,0.12195122,995.6829268,0.076923077,2795.769231,0.186046512,1014.883721,0.142857143,2027,0.076923077,966.4358974,0,2258.411765,0.065217391,971.8043478,0,2269.571429
11,246,  stop your car at the traffic light.,ordinary,,4.366666667,4.476190476,3.961538462,1.64516129,0.744680851,1140.882979,0.914893617,2599.680851,0.564102564,1041.538462,0.851851852,2435.407407,0.578947368,1033.447368,0.708333333,2817.916667,0.5,1101.785714,0.8,3142.1,0.285714286,947.2857143,0.821428571,2576.928571,0.333333333,1047.714286,0.666666667,2144.133333
11,247,  hit a pedestrian with your car.,immoral,,1.482758621,1,1.192307692,4.677419355,0.649484536,1086.742268,0.757575758,2324.151515,0.422222222,960.5555556,0.578947368,3114.473684,0.238095238,947.6428571,0.272727273,7675.272727,0.195652174,923.7391304,0.4,1979.6,0.076923077,863.6923077,0,1924.384615,0.022222222,862.7777778,0,2315
11,248,  climb into bed and take a nap.,flouting,,4.4,2.777777778,1.875,1.833333333,0.483516484,1176.923077,0.372881356,2676.762712,0.325581395,1030.744186,0.192307692,2202.846154,0.179487179,1002.615385,0.111111111,2882.166667,0.288888889,1022.6,0.125,2396.875,0.051282051,985.3589744,0.2,2700.466667,0.046511628,1014.232558,0.1,2810.3
11,249,  watch a movie at a theater.,flouting,,4.172413793,3.5,1.913043478,1.709677419,0.494845361,1112.536082,0.4,2708.488889,0.386363636,972.9772727,0.272727273,2624.454545,0.333333333,1016.428571,0.333333333,2233.055556,0.23255814,968.3953488,0.428571429,2308.285714,0.157894737,924.7631579,0.071428571,2131.857143,0.170212766,908.4255319,0.1,2189.1
11,250,  decide to rob a bank instead.,immoral,,1.366666667,1.238095238,1.259259259,4.451612903,0.406593407,1126.186813,0.652173913,2538.586957,0.268292683,982.2439024,0.444444444,2301,0.146341463,977.4146341,0.363636364,2185.545455,0.155555556,968.8666667,0.111111111,1666.333333,0.026315789,921.6842105,0,2236.181818,0.021276596,906.6808511,0,2083
11,251,  turn on the radio to listen to music.,ordinary,,4.233333333,3.863636364,3.137931034,1.741935484,0.912087912,1078.835165,0.971428571,2622.942857,0.818181818,1020.272727,0.909090909,2428.136364,0.707317073,1021.341463,0.764705882,2405.117647,0.619047619,1015.357143,0.818181818,2552.090909,0.605263158,970.0263158,0.80952381,2560.619048,0.523809524,1032.833333,0.8125,2118.75
11,252,  see the future; the event is a success.,impossible,,1.714285714,3.461538462,2.727272727,1.88,0.298969072,1177.443299,0.186440678,2661.254237,0.3,1020.725,0.095238095,2763.190476,0.128205128,1064.384615,0.411764706,3026.117647,0.166666667,1083.880952,0.428571429,2893,0.194444444,1057.861111,0.363636364,2753.272727,0.15,1059.95,0.375,3370.166667
11,253,  board an international flight.,flouting,,3.2,3.166666667,2.19047619,2.129032258,0.387096774,1077.16129,0.435897436,2776.666667,0.295454545,1049.090909,0.217391304,2595.304348,0.162162162,932.7297297,0.0625,2335.5625,0.139534884,968.4651163,0.142857143,1936.428571,0.128205128,943.7435897,0,2609.117647,0.088888889,978.8,0.111111111,3829.666667
11,254,  take a walk on the planet Neptune.,impossible,,1.178571429,1,2,3.2,0.095744681,1069.734043,0.026315789,1960.815789,0.048780488,1032.317073,0,2307.952381,0,988.5384615,0.0625,2379.125,0.046511628,1005.255814,0.0625,2356.6875,0.027777778,955.8055556,0.071428571,2014.071429,0.045454545,990.5,0.090909091,1909.636364
11,255,  jump over the Great Wall of China.,impossible,,1.357142857,1.75,2,3.421052632,0.03960396,1002.693069,0.03125,2238.625,0,942.9148936,0,2146.222222,0.023255814,934.6744186,0,2325.625,0.042553191,930.0638298,0.142857143,2152.428571,0,814.8648649,0,2204.111111,0,878.6222222,0.111111111,2291.777778
11,256,  steer your car into a small dog.,immoral,,1.333333333,1.136363636,1.142857143,4.666666667,0.45,1151.875,0.703125,2695.671875,0.380952381,1128.214286,0.5,2807.923077,0.135135135,1006.702703,0.210526316,2279.368421,0.11627907,1062.860465,0.1875,2025.625,0.052631579,1005.5,0,2136.333333,0.023255814,1046.953488,0.083333333,2053.083333
12,209,  build a small hut on a mountain.,impossible,,1.433333333,2.333333333,1.333333333,2.5,0.137931034,1167.218391,0.056603774,2237.90566,0.071428571,1015.809524,0,2489.384615,0.052631579,1002.894737,0,2146.181818,0.0625,983.25,0.111111111,2007.222222,0.028571429,971.5714286,0,2138.714286,0.025641026,941,0,2198.416667
12,210,  give your toenails a trim.,flouting,,4.133333333,1.863636364,1.285714286,1.8,0.527472527,1160.065934,0.672413793,2306.068966,0.382978723,1050.87234,0.476190476,2247.714286,0.25,1019.4,0.166666667,2316.333333,0.083333333,968.0416667,0.4,1909.2,0.025,1010.4,0,1698.8,0.047619048,930.0952381,0.125,1834.25
12,211,  push over a large towering tree,impossible,,1.275862069,1.75,1.363636364,3.875,0.247058824,1210.823529,0.046153846,2589.553846,0.108695652,1083.934783,0.095238095,2285.095238,0.073170732,1056.926829,0.05,2437.55,0,1012.913043,0,2285.615385,0,986.1351351,0,2104,0,1022.538462,0,2168.142857
12,212,  hold your breath for an hour.,impossible,,1.448275862,2.125,1.357142857,4.208333333,0.446808511,1123.446809,0.088888889,2041.577778,0.355555556,1049.6,0.076923077,2315.692308,0.261904762,1037.761905,0.1,2267.9,0.106382979,1034.851064,0.083333333,2106.583333,0.076923077,1019.871795,0,1871.166667,0.146341463,1010.707317,0,1697.444444
12,213,  take notes on the lecture slide.,ordinary,,4,4.318181818,4.285714286,1.870967742,0.959183673,1029.520408,0.902439024,2698.146341,0.954545455,970.6363636,0.9375,2522.375,0.976190476,926.8571429,1,2222.4,0.958333333,919.1875,0.8,2409.1,0.974358974,912.9230769,0.875,2383.125,0.95,911.05,0.933333333,2233.266667
12,214,  hold your entire class hostage.,immoral,,1.333333333,1,1.285714286,4.741935484,0.431818182,1117.488636,0.6,3407.309091,0.390243902,1090.512195,0.333333333,3160.222222,0.219512195,1061.414634,0.333333333,1911.5,0.130434783,994.7826087,0.125,1921,0.05,1053.5,0,2022.2,0,1046.45,0.1,1988.4
12,215,  throw a brick at your professor.,immoral,,1.206896552,1,1.259259259,4.586206897,0.456521739,1102.152174,0.575,2475.275,0.377777778,1049.355556,0.285714286,2492.785714,0.214285714,973.4285714,0.555555556,2318.666667,0.152173913,949.0652174,0,3269.5,0.025641026,936.2307692,0,1864.333333,0.023809524,887.0238095,0.2,1754.2
12,216,  raise your hand to ask a question.,ordinary,,4.066666667,4.954545455,4.413793103,1.967741935,0.967741935,1007.043011,0.965517241,2469.793103,0.978723404,1037.489362,1,2627.5625,0.880952381,925.1428571,1,5025.166667,0.93877551,928.4897959,0.714285714,2454.571429,0.897435897,947.7948718,0.875,1948.5,0.833333333,966.5,1,2179.8
12,217,  sit facing the back of the classroom.,flouting,,1.5,2.136363636,1.482758621,3.677419355,0.806818182,1162.261364,0.680555556,2906.944444,0.657894737,1131.210526,0.466666667,2842.133333,0.567567568,1149.648649,0.333333333,2842.1,0.5,1183.875,0.315789474,2341.526316,0.294117647,1107.529412,0.086956522,2545.26087,0.166666667,1110.111111,0.16,2492.76
12,218,  set fire to the professor's hair.,immoral,,1.333333333,1,1.275862069,4.548387097,0.326315789,1058,0.511111111,3124.955556,0.155555556,1023.6,0.2,2640.2,0.166666667,964.5714286,0.125,2796.5,0.12244898,963.3469388,0.222222222,2319.444444,0.025641026,930.6410256,0,1589,0,889.85,0,1776.4
12,219,  play a board game with your friend.,flouting,,4.1,2.3,1.344827586,1.5,0.795180723,1126.048193,0.642857143,2462.946429,0.5,1037.840909,0.391304348,2419.521739,0.365853659,962.9268293,0.2,2230.466667,0.24,1022.42,0.142857143,2665.571429,0.076923077,963.8205128,0.166666667,1967.5,0.078947368,987.2368421,0.111111111,2168.333333
12,220,  retrieve an eraser from your bag.,ordinary,,3.266666667,4.909090909,4.535714286,2.344827586,0.888888889,1154.144444,0.963636364,2359.854545,0.780487805,1052.731707,0.913043478,2167.173913,0.789473684,1099.631579,0.923076923,2427.923077,0.659574468,1096.893617,0.882352941,2422.470588,0.606060606,1094.454545,0.869565217,2169.304348,0.5,1085.722222,0.884615385,2197.038462
12,221,  turn to the next page in your notes.,ordinary,,4.3,4.954545455,4.586206897,2.032258065,0.928571429,1133.202381,1,2454.833333,0.931818182,1097.431818,1,2577,0.804878049,1088.780488,1,1867.722222,0.893617021,1064.574468,0.923076923,2060.615385,0.942857143,1075.828571,0.875,2656.8125,0.923076923,1056.846154,0.888888889,2504.444444
12,222,  use your mind to charge your phone.,impossible,,1.482758621,2,2.777777778,2.090909091,0.345679012,1164.345679,0.075757576,2506.030303,0.225,1117.475,0.043478261,2435.478261,0.225,1094.4,0.05,2134.1,0.243902439,1093,0.055555556,2052.222222,0.176470588,1079.882353,0.125,2127.9375,0.125,1113.075,0,2052.714286
12,223,  skin a cat for personal enjoyment.,immoral,,1.3,1,1.166666667,4.677419355,0.172413793,1095.931034,0.264150943,3253.811321,0.142857143,1084.261905,0.210526316,2292.315789,0.075,990.775,0,2454.428571,0.088888889,977.1555556,0.166666667,3690.166667,0,931.225,0,2065.4,0,917.3658537,0,1964.833333
12,224,  scream out your favorite song.,flouting,,2.366666667,1.318181818,1.137931034,3.225806452,0.666666667,1083.365591,0.697674419,2075.255814,0.510638298,963.5531915,0.416666667,2591.916667,0.238095238,1007.214286,0.166666667,2621.666667,0.166666667,968.0416667,0.363636364,2487.636364,0.076923077,937.3333333,0,1800.4,0,880.025,0.090909091,2120.909091
13,257,  lie to your boss about your dad dying.,immoral,,1.344827586,1.136363636,1.555555556,4.233333333,0.597402597,1189.233766,0.641025641,2595.5,0.523809524,1179.309524,0.4375,3016.875,0.333333333,1125.805556,0.230769231,2533.5,0.175,1126.375,0.285714286,2643.238095,0,1037.675676,0,2471.4375,0.02173913,986.826087,0.052631579,2348.263158
13,258,  eat all the lunches in the fridge.,immoral,,1.4,1.409090909,1.428571429,4.129032258,0.76744186,1128.069767,0.735849057,2285.886792,0.770833333,1024.604167,0.55,2723.55,0.527777778,1109.944444,0.294117647,2858.647059,0.333333333,1062.214286,0.117647059,2208.176471,0.153846154,1026.25641,0,2128.833333,0.022727273,976.0681818,0,1940.692308
13,259,  jump on the conference table.,flouting,,1.379310345,2.090909091,1.551724138,4.129032258,0.755813953,1064.05814,0.685714286,2417.285714,0.760869565,1011.5,0.5,2411.611111,0.594594595,1035.567568,0.333333333,2544.733333,0.409090909,1017.636364,0.285714286,2150.214286,0.170731707,979.7317073,0,2881.727273,0.063829787,963.8085106,0,1890.5
13,260,  work sitting at your boss's desk.,flouting,,1.448275862,2.363636364,1.75,3.580645161,0.831325301,1111.39759,0.716666667,3437.15,0.85106383,1052.744681,0.590909091,2670.5,0.777777778,1095.666667,0.384615385,2476.038462,0.7,1092.5,0.454545455,2607.136364,0.378378378,1090.027027,0.052631579,2213.578947,0.19047619,1094.404762,0.210526316,2090.368421
13,261,  walk across the office ceiling.,impossible,,1.37037037,1.875,1.875,3.785714286,0.458823529,1064.894118,0.150943396,2241,0.29787234,1069.234043,0,2220.416667,0.375,1077.125,0.066666667,2267.2,0.372093023,1065.930233,0.071428571,2174.642857,0.243902439,1073.243902,0,2402.727273,0.159090909,1039.818182,0.214285714,2127.785714
13,262,  hold a storm cloud in your hands.,impossible,,1.259259259,2.5,2.125,3.076923077,0.139534884,1120.94186,0.016949153,2360.355932,0.086956522,1067.456522,0,2235.666667,0.05,1010.475,0,1993.8,0,982.3488372,0.052631579,2006.789474,0,972.8611111,0.142857143,2169.714286,0.045454545,994.75,0,2254.866667
13,263,  be so cold you put on a sweater,ordinary,,4,4.772727273,4.586206897,2.064516129,0.821428571,1102.369048,0.960784314,2389.411765,0.658536585,1102.292683,0.966666667,2339.2,0.484848485,1060.151515,0.857142857,2440.714286,0.41025641,1053.692308,1,2711.157895,0.361111111,1093.388889,0.636363636,3001.636364,0.266666667,1076.533333,0.636363636,3012.636364
13,264,  put the final touches on your project.,ordinary,,4.266666667,5,4.620689655,2,0.914634146,1142.731707,0.959183673,2081.469388,0.9375,1085.125,1,2360.2,0.771428571,1076.714286,1,2305,0.846153846,1026.435897,1,1967.235294,0.771428571,1081.371429,0.8,1832.8,0.818181818,1046.386364,0.857142857,2302.642857
13,265,  intentionally short-circuit all computers.,immoral,,1.166666667,1,1.222222222,4.620689655,0.455696203,1172.607595,0.626666667,2551.8,0.485714286,1181.2,0.451612903,2797.774194,0.285714286,1152.857143,0.083333333,2269.125,0.125,1158.275,0.19047619,2791.380952,0.026315789,1082.657895,0,1867.214286,0,1116.52381,0,1771.722222
13,266,  fill your water bottle up with water.,ordinary,,4.466666667,4.954545455,4.689655172,1.64516129,0.914893617,1087.329787,0.955555556,2161.155556,0.958333333,1018.125,1,2277.764706,0.974358974,1052.692308,1,2747.333333,0.976744186,995.3953488,0.75,2535.375,0.820512821,1031.794872,1,2268.666667,0.869565217,1046.043478,0.882352941,2584.882353
13,267,  turn on loud music and dance.,flouting,,3.366666667,2.681818182,2.275862069,2.466666667,0.852272727,1063.75,0.853658537,2390,0.755102041,953.8979592,0.611111111,2736.277778,0.631578947,1042.526316,0.470588235,2525.294118,0.477272727,990.5,0.444444444,2317.722222,0.2,1040.15,0.166666667,2511.5,0.113636364,940.6818182,0.266666667,2516.666667
13,268,  eat a pizza on the office floor.,flouting,,1.714285714,3.136363636,2.172413793,3.322580645,0.764044944,1041.213483,0.755555556,2644.022222,0.836734694,1019.918367,0.736842105,2416.631579,0.567567568,1005.72973,0.304347826,2532.086957,0.357142857,978.8095238,0.25,2480.5,0.236842105,1011.421053,0.176470588,2386.764706,0.177777778,984.4444444,0.294117647,2661.176471
13,269,  build a bonfire in the break room.,immoral,,1.275862069,1.1,1.259259259,4.5,0.280898876,1115.58427,0.368421053,2375.175439,0.276595745,1021.574468,0.363636364,2485.772727,0.135135135,959.2432432,0.272727273,2644.272727,0.090909091,907.0227273,0.066666667,2605.4,0,957.7,0,2037.5,0,884.4680851,0.142857143,1929.857143
13,270, start an alpaca farm under a desk.,impossible,,1.275862069,1.25,1.571428571,3.666666667,0.096385542,1134.012048,0.051724138,2330.224138,0.063829787,1075.595745,0.045454545,2229.636364,0.027027027,1010.783784,0.0625,4014.9375,0,990.1627907,0,2196.785714,0.026315789,978.3421053,0,2396,0.024390244,1001.097561,0.066666667,2031.333333
13,271,  land a jet on the conference table.,impossible,,1.413793103,1,1.666666667,4.066666667,0.090909091,1046.568182,0.03125,2236.46875,0.063829787,1012,0,2744.181818,0.055555556,965.8055556,0,2117.777778,0.048780488,959.195122,0.1,2367,0.027777778,971.7777778,0,2049.333333,0,955.5348837,0,2046
13,272,  take notes on an important report.,ordinary,,4.366666667,4.363636364,4.413793103,1.580645161,0.966292135,1075.752809,0.980392157,2445.882353,0.979591837,1012.142857,1,2435.736842,0.923076923,1040.717949,0.888888889,2657.666667,0.897435897,1019.846154,0.947368421,2110.736842,0.868421053,1018.394737,0.882352941,2460.176471,0.930232558,1043.604651,0.875,3197.3125
14,225, press all of the floor buttons.,flouting,,1.285714286,1.909090909,1.428571429,3.903225806,0.865853659,1023.743902,0.842105263,2641.526316,0.761904762,1020.690476,0.684210526,2234.842105,0.772727273,1008.681818,0.307692308,2714.615385,0.558139535,1036.302326,0.545454545,2150.636364,0.162790698,986.3488372,0,2156.307692,0.170212766,998.6595745,0,2231
14,226, take a picture of the planet Mars.,impossible,,1.633333333,3.5,2,2.038461538,0.175,1058.5125,0.065217391,2318.347826,0.086956522,1023.195652,0.142857143,2220,0.0625,1008.541667,0,1944.1,0.071428571,920.2380952,0,2307.454545,0.066666667,948.4222222,0.125,2345.625,0.108695652,946.1304348,0.125,1958
14,227, climb up Mount Everest.,impossible,,1.266666667,2.333333333,2.142857143,2.275862069,0.072289157,856.313253,0.066666667,2228.933333,0.043478261,919.7173913,0.125,1916.625,0,823.9583333,0,3209,0.023255814,788.6046512,0,1943.333333,0.022222222,792.3333333,0.2,1934.8,0.047619048,802.9285714,0,2052.8
14,228, give birth to a baby elephant.,impossible,,1.321428571,1,1.7,4.357142857,0.022727273,938.375,0,2817.478261,0.043478261,960.5434783,0,2279.111111,0.063829787,938.7659574,0,2707.2,0,836.7804878,0,2672.4,0.023255814,870.5581395,0,2351.666667,0.044444444,834.4,0,2465.5
14,229, shatter the overhead light.,immoral,,1.266666667,1.142857143,1.24137931,4.580645161,0.561797753,1044.337079,0.823529412,2507.235294,0.477272727,1024.727273,0.6875,2334.5625,0.304347826,1027.630435,0.222222222,2750.444444,0.146341463,954.5365854,0.230769231,1969.615385,0,931.173913,0,1707.25,0.022222222,936.7111111,0,1919.5
14,230, hold the other passengers hostage.,immoral,,1.333333333,1,1.25,4.709677419,0.58974359,1100.153846,0.666666667,2365.766667,0.575,1086.15,0.391304348,2360.26087,0.391304348,1072.130435,0.166666667,2574.75,0.179487179,1016.820513,0.117647059,2551.588235,0.045454545,1028.568182,0,1735.7,0.069767442,1013.372093,0,2164.636364
14,231, check the time on your phone.,ordinary,,4.333333333,4.909090909,4.586206897,2.161290323,0.930232558,983.9534884,1,2516.551724,0.977272727,930.2954545,1,2080.066667,0.94,1006.64,1,1999.333333,0.95,969.4,1,1872.636364,0.88372093,956.1162791,0.75,2819.75,0.837209302,964.2093023,1,2244.5
14,232, comment on the weather today.,ordinary,,3.966666667,4.863636364,4.142857143,2.166666667,0.840909091,1054.443182,0.96969697,2241.090909,0.891304348,1014.26087,1,2459.8,0.87755102,1041.673469,1,2298.090909,0.868421053,992.9473684,0.944444444,2087.944444,0.697674419,1047.116279,0.666666667,2522.866667,0.608695652,1039.608696,0.833333333,2855.166667
14,233, push one of the floor buttons.,ordinary,,3.689655172,4.681818182,4.413793103,2.4,0.939759036,1004.13253,0.914285714,2645.8,0.822222222,982.2,0.785714286,2330.142857,0.914893617,1074.191489,0.923076923,2060.461538,0.780487805,1036.756098,0.875,3000.5,0.674418605,1057.511628,0.9375,2691.375,0.760869565,1048.391304,0.857142857,2254.642857
14,234, run part of a half marathon.,impossible,,2.333333333,1.6,1.6,1.833333333,0.101265823,1002.898734,0.024390244,2308.268293,0.111111111,1080.866667,0.105263158,2674.684211,0.133333333,1039.377778,0,2919.75,0,930.2702703,0.090909091,2324,0.023809524,954.0238095,0.090909091,2113.818182,0.044444444,967.8,0,1876
14,235, press your nose to the back wall.,flouting,,1.24137931,3.090909091,1.689655172,3.714285714,0.757142857,1161.971429,0.813333333,2417.72,0.567567568,1081.513514,0.695652174,2403.652174,0.488372093,1086.023256,0.421052632,2830.315789,0.256410256,1072.153846,0.227272727,2676.909091,0.054054054,1018.783784,0.117647059,3460.058824,0.066666667,1057.6,0.066666667,2466.333333
14,236, serenade the other passengers.,flouting,,1.533333333,2.954545455,1.793103448,2.733333333,0.719512195,1088.536585,0.756097561,2394.97561,0.5625,1016.291667,0.611111111,2492.444444,0.4375,1039.395833,0.5,2560.9,0.238095238,998.2380952,0.25,2228.166667,0.12195122,984.3414634,0.2,2208,0.090909091,992.3863636,0,2751.777778
14,237, empty out someone's purse.,immoral,,1.366666667,1.181818182,1.206896552,4.225806452,0.592592593,1138.802469,0.759259259,2395.611111,0.590909091,1006.454545,0.4,2383.28,0.340909091,1044.659091,0.272727273,2301.636364,0.095238095,1020.071429,0.230769231,2052.538462,0.022727273,981.1363636,0,2528.5,0.044444444,956.0666667,0,2709
14,238, trip an old man as he exits.,immoral,,1.3,1.045454545,1.178571429,4.64516129,0.397260274,1174.835616,0.721518987,2740.139241,0.543478261,1107.130435,0.652173913,2608.956522,0.268292683,1027.04878,0.153846154,2059.923077,0.15,974.95,0.142857143,2124.785714,0.047619048,964.547619,0,2175.533333,0.021276596,985.5744681,0,1925.833333
14,239, cross and uncross your arms.,ordinary,,3.9,4.681818182,4.103448276,2.733333333,0.847058824,1043.847059,0.902439024,2784.487805,0.8125,1008.75,0.928571429,2260.642857,0.844444444,1044.577778,0.833333333,2154.583333,0.804878049,1007.146341,0.916666667,2780.75,0.581395349,1091.953488,0.75,2591.95,0.595238095,1057.380952,0.8,2932.35
14,240, hold the hand of a stranger.,flouting,,2.133333333,2.272727273,1.448275862,3.2,0.715909091,1092.170455,0.744680851,2393.531915,0.833333333,1024.380952,0.523809524,2357.428571,0.555555556,1029.755556,0.25,2172,0.348837209,1067.860465,0.3,2093.7,0.272727273,1006.25,0.1,2204.1,0.111111111,1037.022222,0,2219
15,273,Tell his mom he will be late,ordinary,4.464285714,4.285714286,3.9375,4.666666667,,0.869565217,984.5652174,1,2179.875,0.914893617,1049.659574,0.857142857,1932.5,0.8,1081.488889,0.833333333,2404.722222,0.88,1018.98,0.846153846,3304.692308,0.760869565,1099.891304,0.777777778,2184.777778,0.785714286,1052.571429,0.826086957,2277.956522
15,274,Play in the pool instead,ordinary,3.965517241,4.25,4.225806452,4.242424242,,0.829787234,970.5531915,0.941176471,2434.588235,0.782608696,1034.847826,0.823529412,2084.117647,0.627906977,1079.395349,0.727272727,2013.727273,0.612244898,1002.897959,0.933333333,2231.866667,0.692307692,1038.205128,0.529411765,2214.588235,0.590909091,1020.090909,0.888888889,2429.555556
15,275,Wait until next time to ride the slide,ordinary,4.655172414,4.571428571,4.65625,4.727272727,,0.854166667,1124.395833,0.962962963,2420.074074,0.75,1163.727273,0.85,2027.8,0.722222222,1122.916667,0.863636364,1956.909091,0.782608696,1150.108696,0.884615385,1948.923077,0.625,1123.675,0.807692308,2191.692308,0.725,1063.375,0.862068966,2336.62069
15,276,Ask his mom to stay longer,ordinary,4.724137931,4.821428571,4.5625,4.848484848,,0.933333333,927.2444444,0.933333333,1987.2,0.87755102,1004.612245,0.9,2208.8,0.857142857,1054.690476,0.9375,1914.4375,0.916666667,937,0.916666667,2277.083333,0.933333333,1011.844444,0.923076923,1975.769231,0.872340426,986.8297872,0.916666667,2360.833333
15,277,Use the slide in another dimension,impossible,1.04,1.24,3.333333333,1.35483871,,0.238095238,1079.47619,0,2404.047619,0.133333333,1162.377778,0.142857143,2385.142857,0.214285714,1170.261905,0.055555556,2075.777778,0.081632653,1103.285714,0.086956522,8056.130435,0.105263158,1029.947368,0.111111111,1898.222222,0.272727273,1106.977273,0.095238095,2224.285714
15,278,Build another slide out of water,impossible,1.12,1.222222222,3.636363636,1.258064516,,0.155555556,1032.644444,0.058823529,2373.470588,0.0625,1087.125,0,2124,0.12195122,1066.682927,0.058823529,3150.117647,0.127659574,1005.744681,0.117647059,2473.176471,0.108695652,983.4130435,0,1975.857143,0.133333333,1019.733333,0.111111111,2430.888889
15,279,Rewind time to ride the slide,impossible,1.083333333,1.038461538,2.6,1.09375,,0.065217391,988.9130435,0.055555556,2949.777778,0.083333333,1081.083333,0,2872,0.102564103,1046.410256,0,3046.363636,0.085106383,1007.829787,0.133333333,2360.733333,0.05,1037.575,0,1897.071429,0.23255814,960.627907,0.214285714,2437.5
15,280,Make the pool in his backyard,impossible,1.384615385,1.444444444,3.65,1.757575758,,0.255319149,1045,0.19047619,2616.619048,0.288888889,1074.466667,0.157894737,3563.684211,0.219512195,1071.365854,0.210526316,3369.947368,0.104166667,1030.875,0.0625,2159.875,0.155555556,1034.311111,0.1,2241.5,0.30952381,1054.642857,0.380952381,2811.619048
15,281,Say he was late because he got lost,immoral,2.517241379,3.607142857,1.96875,3.212121212,,0.555555556,1160,0.833333333,2731.933333,0.634146341,1164.463415,0.666666667,2402,0.675675676,1216.837838,0.533333333,2428,0.613636364,1210.590909,0.516129032,2385.677419,0.375,1104.55,0.25,2054.625,0.204545455,1150.409091,0.193548387,2204.677419
15,282,Cut to the front of the line,immoral,2.206896552,3.535714286,1.4375,2.818181818,,0.893617021,959.6170213,0.769230769,3015.384615,0.78,988.06,0.9,2106.8,0.711111111,1049.666667,0.4,2154.066667,0.75,918.2916667,0.692307692,2186.692308,0.217391304,1013.608696,0.333333333,1916.555556,0.086956522,955.2826087,0.142857143,2499.285714
15,283,Bribe the lifeguard to let him go first,immoral,2.068965517,2.571428571,1.84375,2.333333333,,0.577777778,1057.533333,0.76,2398.52,0.659574468,1110.595745,0.6,2691.8,0.487804878,1079.268293,0.619047619,2458.190476,0.510204082,1101.632653,0.631578947,2186.526316,0.214285714,1027.166667,0.166666667,2619.083333,0.177777778,1047.422222,0.263157895,2379.631579
15,284,Bully everyone into letting him go next,immoral,1.344827586,2.892857143,1.3125,2.363636364,,0.534883721,1099.837209,0.75,3150.285714,0.454545455,1160.863636,0.588235294,2205.411765,0.375,1194.35,0.294117647,2513.882353,0.404761905,1114.452381,0.454545455,2106.863636,0.046511628,1067.674419,0.181818182,2002.454545,0.066666667,994,0.105263158,2028.526316
15,285,Convince the lifeguard to let him go first,improbable,2.931034483,2.857142857,2.625,2.878787879,,0.891304348,1054.130435,0.55,2398.25,0.795454545,1085.977273,1,2141.0625,0.642857143,1147.642857,0.52173913,3449.086957,0.711111111,1050.555556,0.826086957,2270.173913,0.326086957,1088.434783,0.526315789,2043.105263,0.363636364,1107.363636,0.5,2405.8125
15,286,Suddenly like waterslides much less,improbable,1.464285714,1.785714286,3.434782609,1.939393939,,0.325,1128.875,0.470588235,2728.617647,0.243243243,1193.189189,0.384615385,2918.346154,0.184210526,1209.947368,0.448275862,3387.344828,0.090909091,1118.636364,0.16,2027.88,0.073170732,1113.02439,0.086956522,2319.913043,0.222222222,1127.577778,0.275862069,4834.689655
15,287,Find a smaller waterslide at home,improbable,2.185185185,1.821428571,4.4,2.151515152,,0.522727273,1081.045455,0.366666667,5413,0.533333333,1161.422222,0.32,2625.28,0.292682927,1161.170732,0.384615385,2755.230769,0.25,1104.895833,0.2,2740.75,0.363636364,1087,0.25,2497.3,0.431818182,1069.5,0.4,2504.333333
15,288,Have everyone let him go first,improbable,2.689655172,2.535714286,2.8125,2.666666667,,0.674418605,1134.651163,0.741935484,2537.419355,0.789473684,1141.763158,0.857142857,2355.619048,0.657142857,1157.742857,0.52173913,2186.173913,0.487179487,1108.025641,0.714285714,2341.321429,0.135135135,1059.621622,0.366666667,2116.033333,0.459459459,1088.594595,0.53125,2610.0625
15,289,Stay at the pool overnight,irrational,1.034482759,1.214285714,2.25,1.151515152,,0.266666667,1006.066667,0.375,2588.4375,0.186046512,1077.697674,0,2239.714286,0.136363636,1049.340909,0.2,3388.3,0.104166667,997.8958333,0,2130.3,0.065217391,969.4782609,0,1891.3,0.130434783,974,0.166666667,1887.083333
15,290,"Stand next to, not in, the line",irrational,1.448275862,2.535714286,2.961538462,2.242424242,,0.538461538,1188.358974,0.604651163,3081.790698,0.4,1189.371429,0.473684211,2763.210526,0.428571429,1161.285714,0.297297297,2489.945946,0.256410256,1230.153846,0.189189189,2523.135135,0.138888889,1149.527778,0.15625,2248.5625,0.153846154,1146.102564,0.166666667,2884
15,291,Never go to the pool again,irrational,1.285714286,1.666666667,3.192307692,1.515151515,,0.468085106,995.5957447,0.666666667,2334.833333,0.425531915,1088.702128,0.4,3033.8,0.325581395,1022.139535,0.333333333,2250.416667,0.127659574,992.893617,0.272727273,2025.363636,0.022222222,931.0666667,0.25,1979.5,0.173913043,994.2826087,0.416666667,2143.083333
15,292,Go to a pool very far away,irrational,1.107142857,1.392857143,3.148148148,1.545454545,,0.348837209,1032.465116,0.307692308,3014.076923,0.288888889,1077.066667,0.368421053,2420.263158,0.179487179,1080.487179,0.130434783,4133.478261,0.088888889,1022.088889,0.052631579,2195.894737,0.133333333,1000.6,0,1948.666667,0.177777778,1055.111111,0.238095238,2199.714286
16,293,Ask her friends to share,ordinary,4.464285714,4.357142857,4.25,4.757575758,,0.895833333,964.5,1,1974.375,0.936170213,998.4680851,1,1719.857143,0.891304348,1021.304348,0.9,2310.9,0.9,934.14,1,1825.666667,0.844444444,995.5555556,0.769230769,2504.153846,0.886363636,953.4318182,0.923076923,2365.769231
16,294,End the camping trip early,ordinary,3.896551724,4.464285714,3.25,4.212121212,,0.695652174,962.173913,0.933333333,2510.2,0.791666667,1137.4375,0.833333333,2250.833333,0.866666667,1110.466667,0.769230769,2071.230769,0.714285714,1020.77551,0.916666667,2339.916667,0.590909091,1096.272727,0.473684211,3289.842105,0.617021277,1048.638298,0.944444444,2856.222222
